IMU												UWB							Encoder Odometry		
.header.stamp.secs	.linear_acceleration.x	.linear_acceleration.y	.linear_acceleration.z	.angular_velocity.x	.angular_velocity.y	.angular_velocity.z	.orientation.x	.orientation.y	.orientation.z	.orientation.w		.header.stamp.secs	range1	range2	range3	range4	range5		.header.stamp.secs	odom.x	odom.y
705182215228	0.338870026207156	-0.350192763199657	-10.3734316503345	0.020410645525503	0.024299283077723	-0.384273439220958	-0.6576561563	0.0483062227	-0.0316894192	0.7510795182		1715156679133743286	5084	5131	3301	3778	4803		1715156742338896130	0.131956499114834	-1.93226412416541
705232218542	0.427888581820577	-0.136867818897264	-10.3175583719432	0.026297546470366	0.073692838188665	-0.265862040042065	-0.655239166699999	0.0482390841	-0.0314544341	0.7531943841		1715156679209096670	5150	5281	3282	3773	4907		1715156742358896220	0.141320557678697	-1.9433350913
705287226725	0.48942704636678	-0.260296146110072	-10.2174426317214	0.016583751698681	0.079687314196811	-0.324715869472485	-0.6525200534	0.0479369604	-0.0303802165	0.7556113737		1715156679283588647	5183	4630	3300	3783	4860		1715156742378896213	0.150901877739483	-1.95435135962551
705337242825	0.548619240047782	-0.446320164437592	-9.96739118157625	0.073005135093801	0.034486502586846	-0.345161256766646	-0.6511437121	0.0510924746	-0.032562221	0.756484175499999		1715156679358432531	5155	5197	3455	3726	5005		1715156742398895683	0.160626861543345	-1.96524050118133
705390210424	0.659731590580195	-0.389500143248029	-10.3345632827579	-0.029057374066232	-0.002159770588892	-0.371624189701895	-0.647216104	0.0508574895	-0.0306823402	0.759941813399999		1715156679433708906	5206	5300	3314	4064	4921		1715156742418895392	0.170494194876575	-1.97600105605172
705442231414	0.717795145557448	-0.068683678392041	-10.3752062587916	0.025548157906753	0.077301446432858	-0.377699825544261	-0.643489911699999	0.0492125938	-0.029540984	0.763265174099999		1715156679509009122	5140	4972	3324	3750	4907		1715156742438895675	0.180502346950108	-1.98663133994647
705492258354	0.71619406703636	0.036357489867369	-10.2592417920529	0.021275269901722	0.049727717329315	-0.37835522948853	-0.638958056199999	0.0477019753	-0.0284331971	0.7671927822		1715156679576841354	5033	5037	0	3745	4897		1715156742458862268	0.190632218384269	-1.99711152157411
705546292784	0.632078152240067	0.178776275688968	-10.0911321275353	0.038320844942341	-0.060646236712584	-0.376745282030549	-0.6369774675	0.0504210886	-0.031219449	0.7685691235		1715156679652321100	5084	5014	3347	3675	4907		1715156742478912989	0.201139667668541	-2.0077007793436
705596242741	0.469768698433786	-0.278753082364052	-10.405905348438	-0.045102580497039	0.017349692432647	-0.376149133420535	-0.633083428699999	0.0498168412	-0.0306487709	0.771825345599999		1715156679727235078	5075	5103	3324	3651	4921		1715156742498896813	0.211761339738195	-2.01810445551288
705648263611	0.495723150836303	-0.14341231777044	-9.99385131847858	0.000325662469276	0.021412668208024	-0.398737932628533	-0.6288201276	0.0487761929	-0.0297088305	0.775417260699999		1715156679801645755	5056	5145	3319	3651	4944		1715156742518898317	0.22253917566687	-2.02836535046289
705695286826	0.447357873454876	0.259427400451526	-10.1367809490323	0.007543009514972	-0.013092090556154	-0.307476129182452	-0.624691103699999	0.0477691139	-0.0298431077	0.77880776		1715156679876753568	5122	4724	3292	3717	4958		1715156742538897757	0.233460605500108	-2.03847101134506
705748283041	0.398240937455929	0.053930058201985	-10.7155394528865	-0.047699894929166	0.017726655602867	-0.224478913547215	-0.625597474799999	0.0489776087	-0.0333678842	0.7778678196		1715156679951209783	5145	4494	3300	3731	4939		1715156742558896885	0.244524348764712	-2.04842031727866
705801286871	0.77803977090083	0.122271330064255	-10.2826729365229	0.024211350908074	-0.003909484069831	-0.206970826487843	-0.6247582423	0.0470641586	-0.0320586815	0.778707052099999		1715156680027546405	5117	5047	3263	3736	4935		1715156742578918174	0.255454314662562	-2.05797195058292
705856229172	0.775712570062279	0.141211684187315	-10.4283626794397	-0.007623219037608	-0.067900125761418	-0.144264534803541	-0.6245568265	0.0452514164	-0.030883756	0.7790091758		1715156680103384494	5075	5234	3282	3642	4897		1715156742598898209	0.266488202307899	-2.06735724666885
705906268102	0.659896571883559	-0.072018284441158	-10.2374367874801	0.016555021808124	-0.000773517219208	-0.216631077157455	-0.626604553799999	0.0468291735	-0.0334014535	0.777162864299999		1715156680165661811	5112	5244	0	0	4968		1715156742618898951	0.277657870915066	-2.07660409033979
705956322147	0.543203900468163	0.098236082221288	-10.3059275553822	-0.017730232144987	0.047848162261667	-0.198501191917821	-0.6255303362	0.0455199708	-0.0328307754	0.778136373999999		1715156680241297483	5112	5065	3287	3731	4925		1715156742638897484	0.288948775976251	-2.08569994841815
706006295121	0.869645383865386	0.047384769310942	-10.1185999801754	-0.009769576553252	-0.047955092340623	-0.184965259558573	-0.6251610739	0.0438415058	-0.0315887113	0.7785727749		1715156680316197156	5140	5159	3292	3722	4925		1715156742658897663	0.300361063668179	-2.09464497312225
706061288764	0.670038465061038	-0.082723154396797	-10.3803406990706	-0.034377743665235	-0.012148549226696	-0.179471640927687	-0.6249596581	0.0422301794	-0.0310180332	0.778874898599999		1715156680391000747	5117	5216	3300	3680	4916		1715156742678894059	0.312128119810923	-2.10361701082134
706111306060	0.538770776858925	0.053740147953341	-10.2750040093302	-0.023362276895908	0.006436589877423	-0.18490578784248	-0.627007385399999	0.0432036891	-0.0337371465	0.7770621564		1715156680466240167	5089	5216	3300	3764	4930		1715156742698898096	0.324027879074464	-2.11242179193675
706161286327	0.531373360083997	-0.126158948619943	-10.3664466137528	-0.009487941026193	0.00376907514314	-0.208642759020195	-0.6267052617	0.041961625	-0.0329650526	0.777397849399999		1715156680541359186	5065	4742	3277	3703	4916		1715156742718896445	0.336049998546037	-2.12105153625769
706213275672	0.564750290637463	-0.395007873818837	-10.6770486864507	0.027968370045795	-0.010097260840332	-0.322749624350166	-0.6249932274	0.0418273478	-0.0311858797	0.778841329299999		1715156680615670680	5103	5150	3306	3694	4939		1715156742738896683	0.348196472319005	-2.12950779983633
706263299814	0.397442590152472	-0.507749359923042	-10.7686572950899	-0.028048429245471	-0.017790627645083	-0.426755053086439	-0.621065619299999	0.0421294715	-0.0296081226	0.7820304128		1715156680690767526	5108	4785	3292	3741	4878		1715156742758928678	0.360483127801792	-2.13780113943859
706313272445	0.487937173135206	0.043768122316897	-10.1289495247542	0.022543906218278	0.036701805285952	-0.357221581500151	-0.6188836148	0.0432708277	-0.0321593894	0.783608169899999		1715156680765907526	5070	5028	3292	3811	4954		1715156742778893996	0.372913849180647	-2.14593282640131
706363274134	0.519551952854357	0.014864250090835	-10.339729287219	0.018671676235087	-0.023149317635459	-0.420422721804503	-0.614452467199999	0.0428008575	-0.030883756	0.7871329464		1715156680841283798	5136	5098	3292	3759	4921		1715156742798893794	0.385466692185813	-2.15392257423464
706414388163	0.919917627379298	-0.047179287033831	-10.1919235750615	0.018022484946299	0.010888358043627	-0.367683443657878	-0.610256304699999	0.0417266399	-0.0292388603	0.790523445699999		1715156680917025089	5098	4902	3292	3628	4963		1715156742818896372	0.398120162578269	-2.16175591208273
706466323943	0.811123052269965	-0.008486846846296	-10.1066862550199	0.020779268632262	-0.016030449813595	-0.371870066049537	-0.606227988699999	0.0403838679	-0.0277618111	0.793746098499999		1715156680992632627	5122	4836	3305	3661	4883		1715156742838894713	0.410867851725351	-2.16942885811299
706517271882	0.668179247060418	0.001251825550356	-10.1430657283902	-0.00703110730127	-0.000542360038076	-0.370007484472649	-0.604180261399999	0.0419951943	-0.0296752612	0.7951560091		1715156681068433761	5117	4728	3268	3712	4893		1715156742858895354	0.423711905497507	-2.17694277094787
706567244720	0.489710466418042	-0.173750337285734	-10.2791810027539	-0.013482954178907	0.021156519964834	-0.37745587998841	-0.599883391	0.0414916548	-0.0285003357	0.798479369799999		1715156681143202066	5094	4813	3273	3708	4911		1715156742878910713	0.437093411651741	-2.18454823853837
706620316382	0.501393634220771	-0.169799480768106	-10.521216319704	0.007183944139665	-0.036722827613807	-0.396806774653576	-0.595653659199999	0.0414916548	-0.02685544	0.801702022599999		1715156681219055414	5084	4907	3306	3684	4954		1715156742898922331	0.450526144782284	-2.19205696505691
706670315763	0.946417000313475	-0.255093280237354	-9.95246366155743	0.007464982536074	-0.070294935920969	-0.402719058852579	-0.5912225116	0.0407531302	-0.0248748513	0.805058952599999		1715156681293464660	5108	4944	3282	3656	4944		1715156742918896511	0.46398668766736	-2.19945614190562
706721324263	0.349237690964527	-0.054291397761088	-10.7167166799724	0.004762436830483	0.007643965686678	-0.455748887874132	-0.588033428099999	0.043304397	-0.0278289497	0.807173818499999		1715156681369361877	5108	5019	3282	3792	4916		1715156742938917216	0.477530867624886	-2.20677663397594
706772351639	0.510357167801261	-0.035316903906409	-10.491018749839	0.023236727575862	-0.014035742157126	-0.456613949175217	-0.582360216399999	0.0427001496	-0.0264526084	0.811336411699999		1715156681444454193	5108	4944	3292	3787	4930		1715156742958896114	0.491098378267088	-2.21398552837835
706824291881	0.621513868932053	0.112602881351113	-10.1192067138969	0.049268371975547	0.021272315457387	-0.424754220159462	-0.576720574	0.0418273478	-0.0252776829	0.8154654356		1715156681518891096	5145	4893	3259	3651	4911		1715156742978898294	0.506275071560355	-2.22191183161438
706875303944	0.770228220367059	-0.4928558883043	-10.2629792250156	-0.030406196498735	-0.051344247788615	-0.417595776307384	-0.571483763199999	0.0420287636	-0.0234649407	0.819158058599999		1715156681593957424	5131	4902	3305	3750	4954		1715156742998896057	0.521443322201533	-2.22984612523007
706926298092	0.592157864457741	-0.116958619742048	-10.1477886652588	0.039424962401964	-0.001235072554555	-0.426477584990366	-0.5687310806	0.0437407979	-0.0246398662	0.8209708008		1715156681669107913	5094	4963	3254	3670	4916		1715156743018906567	0.536616141788652	-2.23779521783103
706976291677	0.735625912737101	0.071219480479974	-10.2034608681201	0.075673988690711	0.002442350445826	-0.419505362677512	-0.563158576799999	0.0433379663	-0.0225921389	0.824864839599999		1715156681744295835	5065	4925	3268	3722	4897		1715156743038928417	0.551792447821717	-2.2457585651507
707029339845	0.754446713867411	-0.365386606004461	-10.2879967618942	0.000881468610039	-0.036052335197488	-0.402567524986553	-0.5580896125	0.0435393821	-0.0209472432	0.8283560468		1715156681818740367	5108	4996	3306	3778	4925		1715156743058895767	0.56692233630407	-2.25370996167205
707076338624	0.575597884398885	-0.304975611118227	-10.1845925015211	0.036324655902516	-0.001645023552183	-0.419493278584065	-0.553087786799999	4.37E-02	-0.0191009317	0.831712976799999		1715156681893606901	5094	4954	3296	3759	4954		1715156743078895293	0.583097959074927	-2.26222417159289
707133296669	0.53235170359686	-0.435889517446607	-10.2607790846228	0.038715658573946	-0.042520029964205	-0.419033017768672	-0.5499322726	0.0465606191	-0.0204101344	0.833626426899999		1715156681962714433	5108	4972	3277	0	4907		1715156743098897265	0.599291930143254	-2.27070824973024
707181333247	0.640318376514688	-0.090020179537172	-9.94223686657548	-0.027512322434471	-0.004341714074453	-0.424433941748867	-0.544359768799999	0.0460570796	-0.0188659466	0.837352619199999		1715156682024254560	5084	0	0	3609	4916		1715156743118909881	0.615510839368327	-2.27916561765698
707233315928	0.657819765609502	-0.180788583625759	-10.1642920562922	0.040749002872167	-0.001849209335309	-0.414740201828546	-0.5389886808	0.0454192629	-0.0172546202	0.8408773957		1715156682098614931	5112	4986	3287	3736	4954		1715156743138894196	0.63172305852344	-2.28757979674287
707281267016	0.659128802381455	-0.172613058617804	-10.2188723722636	-0.048369671620943	-0.010148668171749	-0.415356490594304	-0.533516884899999	0.0439422137	-0.0157440017	0.8444693108		1715156682174273252	5117	4925	3301	3703	4930		1715156743158921829	0.647986617286646	-2.29598093092976
707335316476	0.520825151127949	-0.556582474011927	-10.1681896482527	0.014671658212058	0.026238821687736	-0.419489383710971	-0.5302270935	4.68E-02	-0.0167510807	0.8463827609		1715156682249081611	5108	4944	3273	3731	4949		1715156743178894981	0.664044432583651	-2.3042365908666
707385337417	0.526596391473151	-0.311390556194446	-10.5825852729022	-0.017667446041694	0.000935492939353	-0.42338322483029	-0.5248560055	0.046325634	-0.0148376306	0.849773260199999		1715156682316745042	5112	4944	3273	0	4921		1715156743198924748	0.680145994934606	-2.31251909322431
707438297621	0.846647150919958	-0.159162862876243	-10.1390944866716	-0.040546069997103	0.025555009304776	-0.380559694370356	-0.519686333299999	0.0447478769	-0.0128234726	0.8530630516		1715156682390886306	5117	4883	3306	3736	4916		1715156743218896093	0.696198822626526	-2.32078087812772
707488390580	1.00032358174175	0.457081614285521	-9.93787399519085	0.050027593429247	0.013133886580809	-0.227022798309972	-0.5182428534	0.0453856936	-0.0141326753	0.853868714799999		1715156682465451002	5070	4972	3273	3698	4925		1715156743238895716	0.712272611621805	-2.32905779618063
707539326744	0.480794461773708	0.44854792348966	-10.1352109232366	-0.001671579091344	0.065898289987843	-0.077032716834112	-0.5181085762	0.0422301794	-0.0139312595	0.854137269199999		1715156682539574623	5112	4897	3306	3698	4939		1715156743258902260	0.72835019084848	-2.33734101924168
707590310089	0.852529486956819	-0.026668763267889	-10.3161204480946	-0.03278529192726	-0.011072095352896	-0.036728403607339	-0.520458427199999	0.0398467591	-0.0131927349	0.8528280665		1715156682614464282	5108	4939	3273	3853	4916		1715156743278898310	0.743902128918797	-2.34535764355948
707642339508	0.641245647427439	0.35258857229501	-10.2497608470022	0.018899026968396	-0.027366922161331	0.007242917033202	-0.5229761247	3.73E-02	-1.22E-02	0.851418155899999		1715156682689246416	5098	4954	3306	4274	4907		1715156743298897008	0.759464694800192	-2.35335868541258
707693316461	0.683593308487161	-0.251323424576129	-10.0790395386815	-0.008368225348842	0.075161837845953	-0.094790508535192	-0.527709396	0.0384704178	-0.0143005218	0.848396918899999		1715156682763850212	5112	4991	3268	4387	4949		1715156743318895995	0.775036037347202	-2.36134318720946
707743305907	0.853249252598732	0.020062901012739	-10.058832616955	0.039917285180168	-0.108015183942037	-0.053315661107924	-0.5285150592	0.0382354327	-0.0133270121	0.8479269487		1715156682838516712	5080	4963	3292	4396	4930		1715156743338899485	0.790619421950896	-2.36931281799568
707794369340	0.148761040120944	-0.171694007544126	-10.9894545937001	-0.025464511761984	0.054803094833382	-0.034745122576422	-0.5305963558	0.0376647546	-0.0130584577	0.846651315299999		1715156682907074928	5098	4897	3263	0	4954		1715156743358896762	0.806206483842138	-2.37726329693726
707846328028	0.483508104646578	0.239373550394922	-10.4723245707631	0.025001972695502	-0.037847085229173	-0.004785617255088	-0.5332483305	0.036590537	-0.0130584577	0.8450399889		1715156682982697725	5065	4855	3235	3717	4996		1715156743378897117	0.821198351381506	-2.38488998461652
707897355590	0.802538033145666	0.056169402660569	-10.6036514418065	0.036563882669811	0.003322285137495	-0.066581045428745	-0.537343785099999	0.0383361406	-0.0152740315	0.842320875599999		1715156683057662487	5051	4789	3188	3759	5009		1715156743398897071	0.836193181180756	-2.39251010218064
707948369439	0.897408420059829	0.114800510126398	-10.1722322016417	0.011629075729238	-0.072716073924608	-0.030065214091259	-0.539122958	0.0375304774	-0.0143340911	0.841246658		1715156683125890493	5005	4808	3174	0	5019		1715156743418897468	0.851191603217703	-2.40012396991859
707999418934	0.7520003436286	0.148104128848481	-10.3579336369514	-0.015352407959764	-0.007605629690846	0.000722375358659	-0.5412713932	0.0358855817	-0.0133605814	0.8399374553		1715156683201200962	0	4813	3123	3802	5047		1715156743438895305	0.86619136250391	-2.40773044377347
708051344230	1.00466862520873	0.115285690694302	-9.72315864684283	0.034006476122737	-0.046906560046377	-0.026541177856433	-0.5435205363	0.0342742553	-1.27E-02	0.838561113999999		1715156683269439458	4968	4817	3099	0	5009		1715156743458895271	0.881195972878594	-2.41533130684273
708102358854	0.519506360146962	0.148485173188475	-10.4186490946769	0.0054058934804	-0.022798377502219	-0.00205128669588	-0.5470788821	0.0361541361	-0.015106185	0.8361105551		1715156683344707250	4968	4733	3085	3909	5070		1715156743478917402	0.897613940412532	-2.42363930399413
708152343600	0.545505784202367	-0.135600374511023	-10.1668651216506	0.014293618334132	-0.021019381732857	-0.017299394058153	-0.5490594708	0.0356170273	-0.0148376306	0.834868490999999		1715156683420135736	4977	4724	3029	0	5061		1715156743498897415	0.91405066754795	-2.43182365189271
708205391336	0.594512757020816	0.031505332561885	-10.2973269002974	-0.003973125037431	-0.025406296725031	-0.027186191311261	-0.550972920899999	0.0350463492	-0.0143676604	0.833626426899999		1715156683494351387	4930	4663	3001	3956	5094		1715156743518914400	0.930570405156368	-2.4399166568669
708255347065	0.661817164682596	0.191072424290888	-10.2643855846822	0.079262806319053	-0.025910277074788	-0.013841230488712	-0.5526178166	0.0348785027	-0.0134612893	0.8325522093		1715156683569843769	4916	4583	2944	3909	5084		1715156743538899318	0.947115596954299	-2.44788984540234
708306349997	0.492325544287264	-0.154751530973706	-10.4639624006092	0.005170503329551	0.05215848848596	-0.019937104274768	-0.555907607999999	0.0373962002	-0.0152404622	0.8302359276		1715156683645609617	4888	4471	2912	3956	5145		1715156743558897830	0.963723222694013	-2.45576137146919
708357379045	0.82338785588555	-0.005584149958019	-9.90740871430039	0.010233275551224	-0.01399922668157	-0.025056588303795	-0.5575189344	0.0366576756	-0.014099106	0.829195279299999		1715156683713552236	4883	0	2869	3970	5159		1715156743578895649	0.979673887284785	-2.46319566637752
708409390652	0.857779224178567	0.130031004280317	-10.0875221203446	-0.027304391971174	0.037972241316839	-0.004590229656347	-0.559197399399999	0.0348785027	-1.27E-02	0.828154631		1715156683788733482	4850	4283	2813	4059	5183		1715156743598895457	0.995695898524812	-2.47047915490323
708460396022	1.34942679613903	-0.046436921401042	-9.78994611795842	0.025654191249436	-0.054532230544575	-0.025169262904446	-0.560842295099999	0.0332671763	-0.010406483	0.827181121299999		1715156683864036798	4850	4265	2757	4110	5220		1715156743618897823	1.01178829500453	-2.47761134010362
708510378972	0.99187855561003	-0.062509492402291	-9.82123382114767	-0.027012166217592	0.044130951140459	-0.028002943286291	-0.563628547	0.0351470571	-0.011077869	0.8251669633		1715156683938573837	4808	4625	2711	4106	5286		1715156743638897648	1.02794553690357	-2.48458974322202
708561367406	1.1852820897296	-0.156531162665784	-9.9218662787199	-0.027993122879771	-0.075970173815819	-0.014963529224261	-0.565038457599999	0.0341735474	-0.0097686663	0.824260592199999		1715156684013768434	4799	4893	2673	4115	5262		1715156743658895520	1.04416662368934	-2.49141399605372
708613388295	0.150218499787105	0.290130746147874	-10.5742043980479	0.016867747660316	0.094084654333024	0.007649646750238	-0.5667169226	0.0333678842	-0.009735097	0.823152805299999		1715156684088744640	4780	4846	2617	4200	5286		1715156743678898619	1.06001167219426	-2.49790396362797
708661450780	0.635346287190541	0.304653850084263	-9.93370869220495	0.059486513281639	-0.021730081639853	-0.000919797063716	-0.5681604025	0.0326293596	-0.0098022356	0.822179295599999		1715156684164290904	4785	4738	2841	4228	5337		1715156743698916611	1.07592245115446	-2.50426549565824
708715445018	0.3126039505722	0.005146158116264	-10.1690173312485	-0.002603798345129	0.004264343523151	-0.006898548458011	-0.5706109614	0.035919151	-0.013092027	0.820299414799999		1715156684239120721	4775	4710	2841	4283	5389		1715156743718896312	1.09185554657246	-2.51048130005014
708765392230	0.468707352812588	-0.108184827446844	-10.1698251405	-0.008823285718028	-0.038555124055674	0.014005537124997	-0.572356565	0.0361205668	-0.0135284279	0.8190573507		1715156684313604831	4766	4663	2813	4354	5408		1715156743738915143	1.10787147780929	-2.51657527549871
708818410990	1.13497506716325	0.074550131873181	-9.98295466141104	-0.001866962008747	-0.018593046403902	-0.035993433564316	-0.5739007528	0.0353484729	-0.0131255963	0.818016702399999		1715156684382010936	4789	0	2682	4312	5464		1715156743758897827	1.1239090025855	-2.52252379638489
708865429937	1.31038204908221	0.04257687583887	-10.2696895363092	0.016250255270581	0.040710399519929	-0.041995482936811	-0.574773554599999	0.0335693	-0.0117828243	0.8175131629		1715156684457593441	4738	4574	2593	4330	5492		1715156743778898927	1.14027399140631	-2.52843822355325
708919425038	1.57669051428437	-0.119076150752138	-10.2765810493886	0.040271935013582	0.03512853038842	-0.026629020560513	-0.5767541433	0.0343413939	-0.0116149778	0.816069682999999		1715156684526103496	0	4527	2566	4358	5543		1715156743798895965	1.1566983621103	-2.53417498042662
708970470861	1.66374759709909	0.073832128930092	-10.1824227562665	0.028745584481611	-0.010990774272595	-0.033745527947802	-0.5778954995	0.032226528	-0.0084258943	0.815398296999999		1715156684600716829	4747	4509	2542	5159	5534		1715156743818896476	1.17318638591143	-2.5397356050036
709022429398	1.28983391270264	-0.104748587654158	-10.5762315199613	-0.028974191894059	-0.027168874522391	-0.001439192538876	-0.579338979399999	0.0306487709	-0.0062103205	0.814458356599999		1715156684676714420	4752	4518	2472	5216	5571		1715156743838897618	1.18973383254874	-2.54511859574143
709070498416	1.46255384749472	0.05918572284102	-9.84198551727533	0.017354015908229	-0.024706786255802	-0.015618455672068	-0.5811181523	0.0282989199	-0.0038940388	0.813283431099999		1715156684744602918	4789	4480	2444	0	5618		1715156743858896714	1.20633656767013	-2.55032261543029
709123414039	0.151167882066965	0.167463786095846	-10.6280961472332	0.007986082018213	0.087138772347826	0.001121203302491	-0.5832330182	0.0311858797	-0.0068145679	0.8116721047		1715156684819389104	4761	4485	2420	5192	5632		1715156743878896903	1.2223442357603	-2.55515151415526
709174377629	0.80591393931955	-0.046185102064442	-9.98100820351839	0.032063758364173	-0.119169359792265	-0.000800672294707	-0.5843408051	0.031219449	-0.0068817065	0.8108664415		1715156684893946886	4747	4471	2369	5183	5665		1715156743898895878	1.23841299513962	-2.55976938540817
709226499493	0.28999314604178	-0.181105924212932	-10.2170124236106	-0.035741606716113	0.032868782027434	-0.00400050098105	-0.5856164385	0.0317229885	-0.0079894934	0.809892931799999		1715156684961362838	0	4419	2327	5267	5736		1715156743918938309	1.2545760844918	-2.56418531250216
709277440843	0.102077432216145	-0.133483957745786	-10.6803126566827	-0.038670821760281	0.001746790765672	-0.009325416419184	-0.587664165799999	0.0349456413	-0.0116485471	0.8082480361		1715156685037493705	4799	4438	2327	5248	5843		1715156743938941450	1.27076412119907	-2.56837979705454
709328470798	0.744869395770132	0.284508869411796	-10.3895819901466	-0.012034015614768	-0.012110722976541	-0.014078759490812	-0.588469829	0.0339385623	-0.0115142699	0.807710927299999		1715156685112885475	4832	4466	2294	5375	5806		1715156743958896009	1.28696643431915	-2.57235151811705
709379390647	0.581359334002435	-0.001667752832419	-10.4154085053205	-0.005561173457006	-0.002747098258018	0.015810020178229	-0.589476908	0.0336364386	-0.0119171015	0.806972402699999		1715156685187715053	4803	4363	2312	4996	5890		1715156743978895924	1.30119089471718	-2.57564133964226
709431391511	1.04305695418342	-0.214759041359275	-10.0214103565335	-0.019108395122563	-0.046335303670177	0.02205521199706	-0.591289650199999	0.0326964982	-0.0105743295	0.805696769299999		1715156685262124538	4883	4448	2294	4986	5914		1715156743998897237	1.31548712397717	-2.57860880133752
709481411519	0.999864293666929	0.017870740713726	-10.1704271980464	0.015507134498206	-0.041788110072867	-0.02653241855316	-0.5932366696	0.0353149036	-0.0122192252	0.804119012199999		1715156685336812973	4888	4443	2312	4874	5951		1715156744018897541	1.32984609321686	-2.58125199895144
709532453381	0.914150442154705	0.074831455865479	-9.9909088352859	0.004829628592845	-0.021363597384344	-0.004418649781484	-0.5940087635	0.0340392702	-0.0112792848	0.803649042		1715156685411669015	4949	4040	2312	4949	6012		1715156744038924535	1.34428041012559	-2.58357283909303
709583447053	0.966936422055214	-0.132376215699594	-9.9343914137721	0.003620591688875	-0.051994059094594	-0.000990247037224	-0.5949822732	0.0335021614	-0.0104400523	0.8029440867		1715156685473793745	4921	3848	2294	0	0		1715156744058935840	1.35875224180699	-2.58556460826212
709635424247	0.618671923504397	-0.252291301493905	-10.299951403582	0.01375963581022	-0.020532972004511	-0.010630107359592	-0.595620089899999	0.0338714237	-0.0099700821	0.802440547199999		1715156685540940046	4911	3877	2331	0	6059		1715156744078898201	1.37322994556514	-2.58722429106937
709686464354	0.756053126150742	-0.022875620345911	-10.0793890827715	-0.041918222136874	-0.029291884125565	0.013018861948555	-0.597701386499999	0.0360869975	-0.0118163936	0.8007956515		1715156685615905046	4949	3769	2355	5033	6152		1715156744098898798	1.38776335740244	-2.58862167338955
709736421769	0.199809674834832	0.005187398875528	-10.2337379329621	0.001775826373598	0.076212255158908	0.003716729983707	-0.598674896199999	0.035247765	-0.0118499629	0.8000906962		1715156685691270112	5000	3787	2383	5028	6138		1715156744118897435	1.40231850135857	-2.58975248850968
709787487425	0.765153766646981	-0.080296411307063	-10.0365260926008	-0.029491627449104	-0.051514257334702	-0.014123886547424	-0.599245574299999	0.0346099483	-0.0114807006	0.7997214339		1715156685766352415	5094	3684	2425	5084	6185		1715156744138897197	1.41689273559053	-2.59061656866384
709839481731	0.367899027216807	-0.179095881298463	-10.1850227096319	-0.024070665262302	0.056925018366173	-0.005443885137826	-0.599648405899999	0.0342742553	-0.0113799927	0.799419310199999		1715156685841680049	5178	3703	2448	5126	6218		1715156744158898156	1.43148122522816	-2.59121358103121
709890428324	0.27531503420677	0.158444047082401	-10.5545995338678	-0.004963658936636	0.046179675193976	-0.009531939360233	-0.600588346299999	0.0361541361	-0.0137298437	0.7985800777		1715156685909874916	5220	0	2448	5126	6270		1715156744178939243	1.44572680576267	-2.59153532116395
709941488433	0.821732782154902	0.417427210897766	-10.1848672268092	0.063214522688829	0.003903359839621	0.008451478261231	-0.601159024399999	0.0340728395	-0.0122527945	0.798277953999999		1715156685985572814	5248	3651	2495	5183	6335		1715156744198897532	1.45991706928033	-2.59158310888649
709993492207	0.556644360266998	-0.069667931055883	-10.5168803363263	0.012769901119417	0.039223515071445	0.011395360457043	-0.601863979699999	0.0336364386	-0.011413562	0.7977744145		1715156686053684711	5192	3576	0	5220	6345		1715156744218897757	1.47413546229238	-2.59135891199833
710044462781	0.736242218004539	-0.449606017707847	-10.4280575590133	-0.052891656734059	-0.004741080047046	-0.003706019602846	-0.6026025043	0.0330993298	-0.0095336812	0.797270874999999		1715156686121602296	5131	3549	0	5098	6349		1715156744238934331	1.48837277131437	-2.59086123795252
710094458093	0.836801464210078	0.053284303077776	-9.85498645314574	-0.008791186304514	-0.007158522914673	-0.007288956430546	-0.6031396131	0.0348449334	-0.0100372207	0.796767335499999		1715156686188962697	5140	3497	2519	5080	0		1715156744258898332	1.50254637037386	-2.5900929742454
710145468731	0.829364080750942	0.283745703019574	-9.96892262892723	0.028640387537958	0.041961144803506	-0.003348261881245	-0.6031396131	0.0327300675	-0.0084930329	0.796901612699999		1715156686256484746	5080	3497	2570	0	6312		1715156744278944930	1.51578159180434	-2.58912121435328
710197435602	0.956186114655807	0.108717427353048	-9.80800024556517	-0.018051777637695	-0.029521556802449	0.004712155100746	-0.6032738903	0.0308166174	-0.0068481372	0.7968680434		1715156686324851989	5112	3539	2575	5080	0		1715156744298939740	1.52896050273128	-2.58788714005149
710248546446	0.59688405272942	-0.032671997154504	-10.5538431625425	-0.028174708854222	0.052273562012187	0.006897487354764	-0.6034753061	0.0293395682	-0.0055053652	0.7968009048		1715156686399674415	5103	3567	2542	5047	6410		1715156744318939734	1.54211547015065	-2.58638903215509
710298438168	0.572723863332532	-0.033854352506599	-10.3424964138448	0.054331295040329	0.034393483363396	-0.017294594126407	-0.603408167499999	0.0306487709	-0.005706781	0.7968009048		1715156686467635154	5145	3670	2575	0	6499		1715156744338895970	1.55520908263888	-2.58463159674909
710349449758	0.502552010475657	-0.074556470282422	-10.2425069303512	0.020981196580133	0.064028309816552	-0.016297771890093	-0.6032738903	0.0298095384	-0.0041961625	0.796935181999999		1715156686543182611	5201	3694	2584	5005	6485		1715156744358897360	1.56829449813112	-2.5826082656192
710401467484	1.10107513564899	-0.365519438603892	-10.3606949183583	0.026896932485581	-0.036714937999078	-0.10392355317751	-0.6027367815	0.0292724296	-0.0019134501	0.7973715829		1715156686611617803	5272	3576	2505	5000	0		1715156744378895302	1.58105874108198	-2.58037194315562
710449493113	1.16690187197364	-0.234455090954154	-10.2196310816764	0.011316574581263	-0.007966845360675	-0.113204045398055	-0.600756192799999	0.0285003357	0.0003021237	0.7989157707		1715156686678821086	0	3544	2331	4968	6481		1715156744398915781	1.59379050214586	-2.5778803561379
710503492450	0.704332802720367	0.101014552224986	-10.3739238177657	0.029147886173186	0.103554505629452	-0.05535577149979	-0.5989434506	0.0297088305	0.0004699702	0.8002249734		1715156686753681898	5431	3479	2593	5004	6560		1715156744418897655	1.60644588653878	-2.57514201035649
710553535787	1.11531007029376	0.309693177692033	-9.92115666914582	0.064828864362608	-0.102483465462806	-0.120555243856407	-0.597197847	0.0283996278	0.0017120343	0.8015677454		1715156686821116685	0	3530	2809	5005	6579		1715156744438896802	1.61905546999239	-2.57215107750934
710606454387	0.65925367087014	-0.521200779507309	-10.3210386152744	-0.037804998961572	0.030086779454304	-0.149193247032951	-0.5945794416	0.0286681822	0.0028533905	0.8034811955		1715156686889693737	5469	3427	2720	4968	0		1715156744458896004	1.63160334930416	-2.56891087339577
710653495445	1.02491259100995	-0.566040257382765	-10.0873689756095	-0.006365139137912	-0.090833034510578	-0.169303026095492	-0.591658912499999	0.0293395682	0.0037597616	0.805629630699999		1715156686957951784	0	3507	2701	5000	6668		1715156744478896134	1.64435481024659	-2.5653471502075
710707470397	0.456650346728786	-0.30415950896237	-10.2507627175211	0.071091071284091	0.015882714073015	-0.209710220564126	-0.5879662895	0.031555142	0.003692623	0.8082144668		1715156687032716274	5581	3418	3010	4991	6668		1715156744498896860	1.65703271248734	-2.56152862668874
710758463179	0.210767615369241	-0.245532712345477	-10.3101922270894	-0.022846561992598	-0.000201541997573	-0.221572372823016	-0.583501572599999	0.0323608052	0.0038604695	0.811403550299999		1715156687107736110	5600	3436	3099	5033	6696		1715156744518897018	1.66963122932499	-2.55745704917421
710810525733	0.380390844521299	-0.321760814767703	-10.2024893927395	-0.085324393986668	0.034496320912771	-0.214455391060158	-0.579103994299999	0.031890835	0.0035919151	0.814592633799999		1715156687182489633	5665	3450	2902	5065	6729		1715156744538895787	1.68214479920123	-2.5531342502274
710858521618	0.847142314025759	-0.150921944481879	-10.0927617745637	0.061137539999433	-0.03123722967511	-0.255660435301866	-0.574337153699999	0.0309173253	0.0043304397	0.817983133099999		1715156687243386507	5712	3441	3048	0	0		1715156744558895585	1.69456992214874	-2.54856146344053
710911515521	0.620542685812339	-0.246690558877401	-9.60279039218723	0.016016822959252	-0.002265892616919	-0.312082931815099	-0.5683618183	0.0320586815	0.004364009	0.822112157		1715156687319127559	5712	3231	3099	5061	6771		1715156744578896403	1.70664080322389	-2.54384244123266
710962568606	0.655877326304838	-0.099906463118922	-9.83601170356273	0.051111986852046	-0.03887341341783	-0.332370759841268	-0.5618829434	0.0324615131	0.0054382266	0.826543304599999		1715156687393332719	5768	3080	3179	5042	6785		1715156744598898573	1.71861873272059	-2.53888994129772
711014473931	0.689599563164636	0.003352185088291	-10.2265600041568	0.067486757387156	0.016731569622748	-0.283481314076947	-0.555404068499999	0.0313537262	0.0068145679	0.830940882899999		1715156687467942237	5782	3024	3123	5084	6808		1715156744618895793	1.73049544513994	-2.53370741170138
711065505797	0.701871088781952	-0.097799544834392	-10.2735847901821	0.049716914882143	-0.008536946486723	-0.281982786621073	-0.549495871699999	0.0321258201	0.0069488451	0.8348349217		1715156687543131589	5829	2987	3184	5070	6813		1715156744638896557	1.7422715519088	-2.52829467275806
711116513868	0.391356182910874	-0.120952849610522	-9.88178093656897	-0.017314895528232	-0.009517735140888	-0.249309228865705	-0.543822659999999	0.031555142	0.0071838302	0.838527544699999		1715156687618067264	5867	2987	3179	5023	6879		1715156744658897335	1.75394051158416	-2.52265463297538
711168503395	0.394116039545647	-0.432304754295013	-10.1237133776664	-0.011351589948111	0.024159839546927	-0.257295116868471	-0.538652987799999	0.0290374445	0.0078216469	0.841951613299999		1715156687692939281	5862	2846	3300	5000	6841		1715156744678921361	1.76602919401618	-2.51651980725475
711221484854	0.690947324511781	-0.663608578144013	-9.91516415073275	0.032026619750534	0.000189709916148	-0.303297229957954	-0.532610513799999	0.0272918409	0.0104736216	0.8458120828		1715156687767633438	5904	2786	3418	5051	6822		1715156744698895455	1.77796122869093	-2.51015714194833
711273538716	0.718082511131465	-0.348717795276269	-9.79252795114517	-0.010276485339911	-0.013729916596931	-0.358891250345577	-0.525527391499999	0.0257140838	0.0122863638	0.850276799699999		1715156687843551158	5876	2668	3455	5042	6874		1715156744718896976	1.78977839620295	-2.50354548328359
711325495377	0.629340032513067	-0.554266634817607	-10.439647459042	-0.018529045233362	-0.025352852491499	-0.381861580669242	-0.5173364823	0.0243041732	0.0141326753	0.855278625399999		1715156687919792413	5848	2607	3324	5056	6874		1715156744738896964	1.80145839651369	-2.49669647129251
711378481555	0.67666065967977	-0.284217996706441	-10.1299899737179	0.07393394581348	0.041881695218048	-0.423519678546643	-0.5082056327	0.0219207529	0.0168182193	0.860750421299999		1715156687994880437	5829	2570	3310	5037	6973		1715156744758897284	1.81299755043377	-2.48961230684091
711431500643	0.5913603574045	-0.703411596222221	-10.4679593612909	-0.029671621768685	-0.049339303606705	-0.451636867282508	-0.498504105	0.0209472432	0.0191680703	0.866390063699999		1715156688070298194	5914	2505	3385	5028	6991		1715156744778916804	1.82546312921179	-2.48160748790993
711483487924	0.589659910162165	-0.524072827812284	-10.5246018704891	0.035220709051651	-0.044176778317154	-0.457293221700755	-0.487996914099999	0.0202758572	0.0209136739	0.872331829799999		1715156688145386457	5998	2481	3389	5000	7010		1715156744798897247	1.83774170305406	-2.47337047006664
711536538711	0.344561004390381	-0.558899409184791	-10.7467459075331	-0.003534308650523	0.020955590702371	-0.426132472602606	-0.478194678499999	0.0196716098	0.0217864757	0.8777364871		1715156688220692873	6227	2533	3474	5005	7024		1715156744818898666	1.84986571494521	-2.46488050986717
711588583427	0.459433839967474	-0.354817354260385	-10.6486070203423	-0.029659620899023	0.018642552071853	-0.420780850392091	-0.468358873599999	0.0188659466	0.0226257082	0.883006867199999		1715156688295612812	6068	2528	3493	4986	7015		1715156744838896732	1.86181523287421	-2.45615086688356
711640510353	0.576912108802609	-0.800625404457375	-10.0385520454704	-6.67E-02	-0.011459297129151	-0.419808730015185	-0.458758053799999	0.0179595755	0.0234313714	0.888042262199999		1715156688370797872	6049	2626	3535	5000	6954		1715156744858938083	1.87361300517774	-2.44716425111392
711693532524	0.232087338909506	-0.634341713257879	-11.0406049352228	-0.05283253039667	0.037361274712072	-0.452808458425062	-0.448989387499999	0.0170867737	0.0235320793	0.893044087899999		1715156688446385860	6087	2715	3605	5000	7029		1715156744878952648	1.8859649116123	-2.43735762614373
711745550996	0.412298469707183	-0.411314244442805	-10.1883264273524	-0.001140110705933	0.039650344892779	-0.49319186753621	-0.4378108106	0.0155425859	0.0247405741	0.898583022399999		1715156688514389991	6256	2603	3633	4968	0		1715156744898896464	1.89808767805877	-2.42735649614245
711797569215	0.673252385606244	-0.3612258330632	-10.1321059429585	0.019157524202891	-0.041315149308026	-0.472495144414173	-0.426162263499999	0.0143676604	0.0260497768	0.9041219569		1715156688589195966	6462	2673	3684	4944	7015		1715156744918897110	1.91005538391056	-2.41710136794816
711850556066	0.597402669776044	0.000654527519131	-9.50918388772904	0.020359053021167	0.049397239843982	-0.463796927398837	-0.4153193796	0.0121856559	0.0268890093	0.909190921199999		1715156688664382457	6729	2645	3651	4921	7090		1715156744938897034	1.92182832011209	-2.40662407451364
711902518761	0.597174413978122	-0.267082353917788	-9.74392495601773	0.004716788064775	-0.012459988231126	-0.439510795759591	-0.4044093571	0.0109771611	0.0277618111	0.914058469699999		1715156688739596605	6626	2715	3642	4921	7076		1715156744958896210	1.93340235555572	-2.39592833564986
711954580255	-0.185025874135643	0.069262218065513	-10.5671632473647	0.025356073251942	0.081501692557968	-0.429681767255895	-0.393902166199999	0.0099365128	0.0262176233	0.918691033099999		1715156688808128833	6725	2822	0	4860	7076		1715156744978896711	1.94526530652905	-2.3845460005361
712007604129	-0.197189939056802	-0.268608083914034	-10.0931849684119	0.063499193803413	0.047133398953414	-0.446241203045467	-0.383025713	0.0104736216	0.0250426978	0.9233235965		1715156688882601737	6813	2832	3755	4883	7151		1715156744998896583	1.95693996404688	-2.3729713502213
712058641082	-0.550179073243029	-0.26934533041371	-10.2146953788399	0.094714466963692	0.045729367943157	-0.44351196227084	-0.3720149826	0.0121185173	0.0229278319	0.927855452		1715156688950328588	6912	2776	3816	4850	0		1715156745018896275	1.96842347488598	-2.36120724073504
712110606339	0.406090554977767	-0.189891744872648	-10.1282691412746	-0.013683496450774	0.009891023981041	-0.423979939362036	-0.361239237299999	0.0121185173	0.0226928468	0.932085183799999		1715156689025328874	6935	2739	3816	4850	7231		1715156745038896178	1.97971298740127	-2.34925659627212
712162582552	0.89782993340753	-0.166132135633286	-10.0704786310851	0.004104746572822	-0.035563749167188	-0.400875352429917	-0.3515041403	0.011077869	0.0244720197	0.935777806799999		1715156689100223302	6958	2739	3895	4822	7240		1715156745058896104	1.99080536556314	-2.33712272779364
712213588104	0.946850204098969	-0.32679672657568	-10.2534491801261	0.004420745460396	-0.090141561378296	-0.405471069654526	-0.3419368898	0.0102386365	0.0263519005	0.939269014		1715156689174675464	7095	2650	3919	4803	7282		1715156745078898255	2.00150004862061	-2.32503226135232
712265533866	0.957132967051863	-0.211987183759454	-10.055627098912	0.021074265737853	0.024844844110593	-0.407668011106273	-0.3320339463	0.0088958645	0.0286346129	0.942760221199999		1715156689249065637	7043	2406	4087	4761	7310		1715156745098896895	2.0120383157788	-2.3128089603842
712317518506	0.93301895488426	-0.475443163873627	-10.1791377432465	0.030141216131461	0.042819677198731	-0.432365501265395	-0.3218960177	0.0085266022	0.030548063	0.946217859099999		1715156689324137687	6996	2434	4176	4766	7268		1715156745118897441	2.02242135817086	-2.3004515236698
712369512886	0.912441884671151	-0.693928751475363	-10.3777290552675	-0.00436676339316	0.080423370310217	-0.470037479491707	-0.310818148699999	0.0080902013	0.0328307754	0.949843343499999		1715156689399492263	7001	2552	4134	4771	7338		1715156745138905193	2.03265016282264	-2.28795860080099
712420672412	0.647442748501896	-0.28129706775844	-10.3465681933283	0.066089837849247	0.060862348073855	-0.527755437427694	-0.298666062099999	0.0075195232	0.0340728395	0.953703813		1715156689473904848	7001	2570	4143	4724	7334		1715156745158896995	2.04271125112249	-2.27534667880539
712472609963	0.917246581539139	-0.285994632723834	-9.95529742367863	0.023479374840682	0.00889516401973	-0.582437924353209	-0.284667664	0.0069824144	0.0357848738	0.9578999755		1715156689548752784	6921	2566	3989	4738	7381		1715156745178896250	2.05290950459446	-2.26222420083306
712524547067	0.950669397060945	-0.057899683352164	-10.2158515631377	0.007271412856866	0.029074237285478	-0.517262948917432	-0.271307082599999	0.0059753354	0.0367248142	0.961760444999999		1715156689623990058	6720	2603	4013	4672	7390		1715156745198896315	2.0629206820974	-2.24895760741908
712575547300	0.799500711276382	-0.38124388115406	-10.2996778473377	0.009694719880378	-0.035762483402346	-0.528665938914879	-0.2582486249	0.0058746275	0.0372954923	0.965318790799999		1715156689698053121	6776	2575	4082	4677	7348		1715156745218896485	2.0727423932349	-2.23555003245147
712627554886	0.895465030907094	-0.345238319130055	-10.0185122970044	0.05067607731587	-0.007680598195681	-0.539374376500033	-0.245190167199999	0.0061767512	0.0377654625	0.9687092901		1715156689773100137	6912	2416	4167	4719	7381		1715156745238896867	2.08237270340935	-2.2220041084091
712679565939	0.688969375502318	-0.457342859037593	-9.95646997458934	0.049936209553154	-0.033622953878036	-0.577676658377338	-0.2310239226	0.0073516767	0.0377990318	0.972166927999999		1715156689841043949	6954	2350	4237	0	7404		1715156745258896116	2.09180902738053	-2.20832348612079
712730566718	1.06712581203505	-0.578689895597472	-10.0303535414457	0.010149062444426	-0.035244253060163	-0.596140154477776	-0.216286999899999	0.0082580478	0.0383361406	0.975523858		1715156689909637212	6954	2467	4242	4696	0		1715156745278899285	2.10068478521917	-2.19505611123152
712782593156	0.564674631585367	-0.403398320219106	-10.2777875025689	-0.021133949674596	-0.021476604880132	-0.608438898707871	-0.2011472456	0.008728018	0.0379668783	0.9787465108		1715156689977851152	6954	2617	0	4672	7418		1715156745298898332	2.10936644315011	-2.18166484067274
712834518629	0.802512168052047	-0.316286365411989	-10.0601770173013	0.053134066811094	-0.063215962460294	-0.592166252078187	-0.185973921999999	0.0089965724	0.0376311853	0.981767747799999		1715156690052296876	6977	2692	4330	4714	7451		1715156745318930664	2.1178681898738	-2.16812725890333
712886581170	0.612712467110715	-0.232196516638714	-10.3502144408762	0.026625446098988	0.003464059454393	-0.588213322072182	-0.171136291399999	0.0095001119	0.0363891212	0.984520430399999		1715156690126389265	6963	2729	4452	4653	7390		1715156745338897285	2.12614623646786	-2.15451307494315
712937552270	0.566031379956565	-0.26995080375988	-10.5374847329378	-0.027919598827739	-0.005038545778132	-0.570846049655449	-0.156399368699999	0.0088622952	0.0351806264	0.987004558599999		1715156690200957298	6987	2814	4438	4728	7310		1715156745358933977	2.13425575388332	-2.14073291547166
712989650020	0.668086161949485	-0.467635303134284	-10.1998344943165	-0.006569846760171	-0.014671647809085	-0.583533681983722	-0.1418974311	0.0087615873	0.0349456413	0.9892201324		1715156690276040792	7024	2879	4410	4738	7371		1715156745378896362	2.14208659971676	-2.12697529335774
713040546381	0.65945671916157	-0.361156348023563	-10.4632609743416	-0.02747261012531	-0.01070740248934	-0.609114609255451	-0.126791246099999	0.0087951566	0.0338042851	0.991301429		1715156690350628614	6977	2907	4443	4757	7254		1715156745398897196	2.14971219729878	-2.1130680711525
713091567661	0.566592082579247	-0.308906374695897	-10.3892792078077	-0.031347112117806	-0.015042817563637	-0.595891814706126	-0.111450076	0.0087615873	0.0331328991	0.993147740499999		1715156690425747394	7052	2869	4438	4813	6888		1715156745418896059	2.1571143734633	-2.09904242400519
713142614333	0.526564498497545	-0.103097870438219	-10.2583731925249	0.058432800306835	0.031542798281873	-0.570112082459023	-0.0965788761	0.0084258943	0.0324615131	0.9947254976		1715156690500219106	7057	2818	4555	4261	7005		1715156745438895438	2.16429220549822	-2.084900193063
713193568752	0.832328410449251	-0.169257628976367	-10.1569481232702	0.088119706123464	-0.06124055023816	-0.573552620271296	-0.0820433692	0.0089965724	0.0322936666	0.9960347003		1715156690575322628	7080	2814	4766	4256	6973		1715156745458895869	2.17124403800172	-2.07064458169673
713245604572	0.643229076329618	-0.309600165646336	-10.2349747812807	0.054259639362249	-0.025913693411123	-0.572491483734954	-0.0673735851	0.0097015277	0.0317901271	0.997142487199999		1715156690649788379	7080	2822	4921	4148	7769		1715156745478895680	2.17784032835424	-2.05655210228822
713296564508	0.792146037664636	-0.455484006363153	-1.05E+01	-3.05E-05	-0.013438204750215	-0.575085069741555	-0.0528380782	0.0101379286	0.0315215727	0.998048858299999		1715156690724964618	7090	2813	4888	4190	7760		1715156745498895708	2.18421422255101	-2.04235746425457
713347616062	0.984859616758674	-0.028935906765563	-10.289571463865	0.052882560374461	-0.005875249094946	-0.575879024641535	-0.0380004476	0.0098022356	0.032226528	0.998686675		1715156690799503803	7113	2570	4620	4186	7882		1715156745518896143	2.19036419488319	-2.02806404022152
713398581951	1.00453140869513	-0.306545454250834	-10.2920346391081	0.061121789898299	-0.05873433256007	-0.59394670842496	-0.0231963863	0.0102386365	0.0330321912	0.999123075899999		1715156690874332189	7146	2570	4569	4129	7573		1715156745538892661	2.19628742928429	-2.01367847120835
713449640443	0.453204845917411	-0.54380866142828	-10.5595071796536	-0.029925254573002	0.051783973135289	-0.604474850004315	-0.0080902013	0.0108428839	0.0330657605	0.999358060999999		1715156690948481321	7118	2589	4564	4110	7240		1715156745558897180	2.20198598854011	-1.9991957420414
713500623255	0.706387762488797	-0.340457076202891	-10.0548017540037	0.068895469735267	0.069396168987337	-0.586834004364603	0.0070831223	0.0111450076	0.0336028693	0.999324491699999		1715156691022804021	7090	3024	4569	4082	7137		1715156745578895890	2.20759498958317	-1.9842549309767
713551590668	0.66967591535896	-0.250846564311999	-10.2722228541791	0.035745214467153	0.008538606281066	-0.575002977800953	0.0219878915	0.0116485471	0.0335357307	0.999123075899999		1715156691099394798	7038	3268	4602	4064	7071		1715156745598896294	2.2129687728668	-1.96922648028897
713602674598	0.608865801619924	-0.359442018386349	-10.2824145778477	-0.01029347443513	-0.029460622428351	-0.59278543703163	0.036590537	0.0122192252	0.033233607	0.998686675		1715156691173681974	7095	3104	4663	4017	7019		1715156745618896051	2.21810534769314	-1.95411585504203
713653669767	0.556259233406931	-0.14558584415093	-10.4355768486022	0.063528263871187	0.026031199152439	-0.584666657290469	0.0515960141	0.0119842401	0.0328307754	0.998048858299999		1715156691248270988	7095	3085	4691	4003	6991		1715156745638895579	2.22300356872237	-1.93892648395469
713704644169	0.567775812471099	-0.193605175905209	-10.1517856259405	0.063190221343882	-0.029740822345135	-0.586276538169422	0.0666350605	0.0121856559	0.0323608052	0.997142487199999		1715156691322710275	7151	3109	4728	3980	6991		1715156745658899316	2.22766326619565	-1.92365874005442
713755651762	0.683204163039103	-0.491206002205424	-10.6607767660856	0.027339237769562	-0.026385432866934	-0.587401191097763	0.0816741069	0.0125884875	0.0321929587	0.9960347003		1715156691396703004	7174	3156	4696	3886	6977		1715156745678898155	2.23210326844389	-1.90824646891621
713806622526	0.658529375183582	-0.427168012461066	-10.5547971022665	0.001279844219601	0.02063366862204	-0.580588358976149	0.096343891	0.0131927349	0.0319915429	0.9947254976		1715156691464119195	7123	3202	4742	3914	0		1715156745698896609	2.23629693258813	-1.89276567442832
713857615318	0.761881393912807	-0.561899613914079	-10.0952670353829	0.012826545307446	0.070692778898313	-0.594425211893819	0.111248660199999	0.0138305516	0.0327636368	0.993147740499999		1715156691539106607	7113	3170	4789	3881	7029		1715156745718895552	2.24024337957402	-1.87721961533382
713908643964	0.697021456793695	-0.415608945962041	-9.96121746137738	0.036247012273172	0.051495294795503	-0.598669092248915	0.126254137299999	0.014770492	0.0330321912	0.991301429		1715156691614135026	7080	3245	4794	3858	7001		1715156745738897176	2.24394199360518	-1.86161052728861
713959659544	0.401054022115282	-0.27296525621023	-10.1644089606702	-0.024318268503463	0.028910373815843	-0.594073208576738	0.141226045099999	0.0148711999	0.0329650526	0.989287270999999		1715156691688678503	7052	3287	4775	3769	6958		1715156745758893582	2.24739037231616	-1.84594854092998
714011615227	0.640569282535836	-0.436763560334779	-9.65738999738097	0.027503454940279	0.026797511272542	-0.597174126770999	0.156164383599999	0.0154083087	0.0330993298	0.987038127899999		1715156691764040231	7118	3319	4799	3712	6921		1715156745778895343	2.25060947066038	-1.83013137083413
714063642541	0.888350449661538	-0.532302567225508	-10.0267447032988	0.011869346955022	0.053143795671452	-0.605735190990195	0.1713377072	0.0164153877	0.0336700079	0.984486861099999		1715156691833714246	7076	3338	4822	0	6851		1715156745798896583	2.25366820847088	-1.81428283733885
714114674481	0.689534169778227	-0.304962294978927	-10.4141225571632	0.006916305812787	0.020470079790893	-0.594643457945151	0.1866788773	0.0169189272	0.0334685921	0.981667039899999		1715156691901974201	7095	0	4803	4045	6818		1715156745818896309	2.25656614096071	-1.79840535524506
714166641580	0.435622537073492	-0.188319216592609	-10.5670849214315	0.023834218169395	0.073378452021982	-0.592675914531801	0.2017179237	0.0164153877	0.033233607	0.978712941499999		1715156691977043390	7109	3389	4785	3905	6785		1715156745838895409	2.25930312922503	-1.78249985183273
714217733948	0.828870744276046	-0.282315359689202	-10.1751325992584	0.013311199013948	-0.037763303845755	-0.578480799868488	0.216521984999999	0.0169524965	0.0335021614	0.975523858		1715156692052573919	7118	3460	4822	3825	6738		1715156745858896669	2.26187926680468	-1.76656573977254
714269712071	1.10085740124508	-0.338143940422311	-10.5637508085727	0.017641873453445	-0.063233605902515	-0.561563934571114	0.230755368199999	0.0174896053	0.0343413939	0.972234066599999		1715156692128431320	7019	3507	4836	3834	6696		1715156745878896475	2.26438056897176	-1.75003405864314
714321695485	0.716726347282156	-0.567536998746544	-10.0637858554482	0.018988829592591	-0.05052023661902	-0.59750216163827	0.2453580137	0.0179595755	0.033904993	0.968642151499999		1715156692203289270	7038	3539	4855	3783	6668		1715156745898899847	2.26687170148206	-1.73349782718724
714372627452	0.964168857038021	-0.515650378838554	-9.9380131114006	-0.022427455338425	-0.125571449250004	-0.610941005131028	0.2603634908	0.0187652387	0.0341735474	0.964680974099999		1715156692279077053	7095	3544	4874	3764	6603		1715156745918897676	2.26935152807073	-1.71696458225002
714425725320	0.891932253671064	-0.401651038160361	-9.87255601210594	-0.011252095914261	-0.112565119763032	-0.575185404335624	0.2751004135	0.0193694861	0.0340392702	0.960585519499999		1715156692353976488	7076	3595	4860	3647	6575		1715156745938895902	2.27182078997757	-1.70042942059149
714472729079	0.859808391918614	-0.032757752908929	-9.86681366906166	0.048591762611098	-0.091858809261071	-0.56658625691284	0.2886288414	0.018463115	0.034576379	0.956624342099999		1715156692421149253	7034	3637	4888	3595	0		1715156745958896628	2.27427974410251	-1.68389060993827
714525706292	0.705418332934752	-0.68049154307954	-9.86169793348312	0.021138570675206	-0.03543081997809	-0.617754769359023	0.303970011499999	0.0180602834	0.0333678842	0.951891070799999		1715156692496644258	7034	3680	4855	3549	6537		1715156745978896780	2.27685686511863	-1.66648017765526
714578617163	0.541980788413994	-0.36827187911719	-10.565900680083	0.05329432252969	0.00533591060038	-0.617343177812551	0.320418968499999	0.0181609913	0.0318236964	0.946553552099999		1715156692572238445	7090	3712	4883	3558	6490		1715156745998897230	2.27940421344125	-1.64906509934585
714632735070	0.45418191078864	-0.166135661030933	-10.3682282364726	0.035107416514403	-0.064161022623811	-0.572232757635053	0.336028693	0.0173553281	0.0304473551	0.9411824641		1715156692647106409	7099	3755	4860	3544	6462		1715156746018893548	2.28192122265112	-1.63164928417261
714682672164	0.660574178884178	-0.146306998032331	-10.125575664407	0.026827490560157	-0.109330302822589	-0.565640302093644	0.350698477099999	0.015441878	0.0298095384	0.935878514699999		1715156692721722364	7099	3778	4916	3479	6424		1715156746038906991	2.28441054785549	-1.61421426748267
714735675471	0.291712151854112	-0.403924389919824	-10.5144007944703	-0.003989806724798	0.09020938043993	-0.58117125835974	0.366106785799999	0.0148040613	0.0277618111	0.930003887199999		1715156692795859813	7076	3834	4925	3418	6373		1715156746058897186	2.28686714366319	-1.59679526956507
714790721962	0.709959848821908	-0.444873838086798	-9.86E+00	4.38E-05	0.015904509341764	-0.597037306869996	0.381582233099999	0.0144012297	0.0264190391	0.923827135999999		1715156692864934682	7076	3877	4949	0	6401		1715156746078894963	2.29E+00	-1.58E+00
714840751987	0.441488104638643	-0.292991999064199	-10.3377278842687	0.070551839419999	-0.031775897698066	-0.59572356950426	0.396587710199999	0.014099106	0.025176975	0.917516107599999		1715156692939949750	7066	3933	4925	3375	6317		1715156746098893885	2.29E+00	-1.56E+00
714891682909	0.57469863400422	-0.851582853756472	-10.2922392217695	0.062948219063389	0.055400258773562	-0.612604615284973	0.4129359593	0.0133270121	0.0233642328	0.910332277399999		1715156693014995813	7052	3938	4968	3306	6363		1715156746118896907	2.29E+00	-1.54E+00
714941686496	0.254800580901093	-0.657566375370323	-10.788082126528	-0.035979555998323	0.068519306553672	-0.605641980352043	0.4287135303	0.014099106	0.0219543222	0.903047739299999		1715156693083745718	7062	3989	4944	0	6312		1715156746138906028	2.30E+00	-1.53E+00
714993786927	0.739136770402267	-0.231698851048573	-10.0867751013696	0.073364919834693	-0.005452548733747	-0.608817799951962	0.443853284599999	0.0144683683	0.0214172134	8.96E-01		1715156693158897399	7024	4008	5000	3137	6265		1715156746158890434	2.30E+00	-1.51E+00
715041684124	0.845305307856947	-0.352492126183211	-10.2021152987301	0.001726666864574	-0.093092943077349	-0.5904038386478	0.458791623099999	0.014434799	0.0205444116	0.8881765394		1715156693233488559	7052	4078	4968	3080	6237		1715156746178896654	2.30139389140756	-1.49290649266704
715094710622	0.821877962779253	-0.065429654165311	-10.1613109946548	-0.022326875234194	-0.118644226037193	-0.574487323234887	0.475341288	0.0128234726	0.0190673624	0.879482090699999		1715156693309055566	6996	4115	5000	3001	6274		1715156746198896117	2.30379789419693	-1.47567383425594
715145710589	0.3015415084837	0.045084798972611	-10.3749034764528	0.020277882783973	-0.033460201445919	-0.552288211073395	0.489272547499999	0.010742176	0.018463115	0.8718282903		1715156693384088516	7005	4157	5033	2968	6246		1715156746218896018	2.30618719767419	-1.45843874693688
715197694814	0.419554870576225	-0.195750426039285	-10.5236163665831	0.021793310909796	-0.005305774227873	-0.583258843759226	0.5036066386	0.0098358049	0.0178924369	0.8636709504		1715156693458793878	6977	4195	5028	2879	6181		1715156746238895635	2.30856171339775	-1.44120186546718
715244719779	0.548139091848023	-0.440669408666901	-11.1894510963439	0.005268866040086	-0.046439304271934	-0.612949960699329	0.519082085899999	0.0100372207	0.0166839421	0.854472962199999		1715156693532875537	7010	4283	5047	2818	6124		1715156746258895503	2.3109215033811	-1.42396274141361
715298691942	0.309487754780426	-0.522836710146069	-10.7507229944705	0.002975048462647	-0.077192756170869	-0.613680532365365	0.537444493	0.0079223548	0.0147033534	0.843092969499999		1715156693607556819	7010	4312	5037	2800	6101		1715156746278895320	2.31326652992937	-1.40672164767441
715348724676	0.627661724037304	-0.039060191221116	-10.0141634541451	0.017298570142691	-0.088244233871561	-0.592723651694341	0.5528528017	0.0072845381	0.0139983981	0.8330893181		1715156693681642770	7024	4340	5061	2715	6091		1715156746298895696	2.31560424248049	-1.38947906993121
715401697178	0.747389561897516	-0.159550839280523	-10.2786642854034	-0.013833104726495	-0.082384821742574	-0.567889940845461	0.5673883086	0.006378167	0.0133941507	0.823287082499999		1715156693756562948	6996	4424	5080	2720	5965		1715156746318894651	2.31793440928886	-1.37223671834072
715448717487	0.646364451745897	0.396540417148359	-10.077945313704	0.038217560065128	0.001534777655618	-0.497774302244882	0.581218860199999	0.0049011178	0.0145690762	0.813585554799999		1715156693831783056	6958	4391	5061	2617	5933		1715156746338896096	2.32025748574545	-1.35499122416118
715502765750	0.803302733907848	0.287649596856627	-9.92630981412529	0.030555006866427	-0.044298888414324	-0.339181661171091	0.5947472881	0.0018463115	0.0152068929	0.803716180599999		1715156693906049013	6977	4433	5084	2566	5900		1715156746358895335	2.32257292498216	-1.33774663936299
715552695282	0.402379096706584	1.00409250582121	-10.4067038053393	0.027508300645106	0.020346948121774	-0.004132197157772	0.600420499799999	-0.0003692623	0.0161468333	0.7994864488		1715156693981439113	6926	4476	5075	2524	5811		1715156746378895596	2.32486783618217	-1.32059930135665
715604704397	1.08882143794931	-0.595272343216463	-10.3900157053887	-0.09606428183982	0.0424465724912	-0.002788041759035	0.601696133199999	-0.0008056632	0.0178924369	0.798479369799999		1715156694057103157	6954	4517	5070	2463	5740		1715156746398899986	2.32715955077217	-1.30344793250253
715652704764	0.835953834404796	0.008318568474147	-10.4317727801442	0.002024439613401	0.034886846438901	-0.009550053016835	0.6055566027	-0.0003692623	0.019134501	0.795558840699999		1715156694133056163	6940	4513	5051	2448	5731		1715156746418898437	2.32944691482583	-1.28630116563356
715705691838	1.25045686495155	0.099426990772597	-9.85614731361866	0.035872313830177	-0.029375886052011	-0.080402863969823	0.611229814399999	-0.0018798808	0.0211150897	0.7911276931		1715156694207767248	6893	4583	5108	2420	5675		1715156746438896779	2.33173059725621	-1.26915400315896
715758688952	0.838679752237349	-0.092120521950442	-10.4227325645983	-0.010476043490531	0.093453493477053	-0.079436535968288	0.6160637936	-0.0008056632	0.022155738	0.7873343622		1715156694282994031	6926	4396	5108	2364	5600		1715156746458896017	2.33401071259891	-1.25200558413097
715810785027	1.06266963634379	0.088773220816534	-10.3571328419625	-0.021302196957056	-0.038629892303278	0.008140377353423	0.617440134899999	0.0011077869	0.0236663565	0.7862265753		1715156694358141422	6865	4410	5094	2308	5637		1715156746478896286	2.33626358883148	-1.23503423070179
715861766719	1.15331458758264	-0.083389344954258	-9.99390860162377	-0.059173953877015	0.018175146494598	-0.023084973166809	0.6181450902	0.002685544	0.0256469452	0.785588758599999		1715156694433557271	6855	4415	5075	2284	5801		1715156746498896237	2.3385055331983	-1.21806170426816
715913680834	0.878622982503846	0.453531593653745	-10.6435146656394	0.040926644039254	0.084142100265484	-0.072964188992041	0.6194878622	0.0042297318	0.0271239944	0.784514541		1715156694508327960	6841	4518	5065	2242	5455		1715156746518896064	2.34073656693628	-1.20108784724644
715965763111	1.21577601219266	-0.090594846753124	-10.5362864630639	-0.00900793536803	-0.051791313473044	-0.046182438223607	0.62103205	0.0065795828	0.0283996278	0.783205338299999		1715156694583400487	6888	4569	5080	2200	5389		1715156746538894952	2.34295659885725	-1.1841133584081
716017746208	0.572105914097279	-0.01424270010941	-10.0245983389198	0.008487279052541	0.011473884177903	0.014756799264049	0.6215355895	0.0076873697	0.0291045831	0.7827689374		1715156694652197599	6865	4672	5075	2162	0		1715156746558891187	2.34516544024784	-1.16713969986612
716068728614	0.733684131019562	0.289089584798179	-10.171245528692	0.019791556279411	0.02252540973227	-0.017931257114801	0.6219384211	0.0085937408	0.0296081226	0.7823996751		1715156694726957798	6832	4827	5065	2144	5253		1715156746578896630	2.34740036253463	-1.14987905270604
716120742347	0.414321171173825	0.519296882114745	-10.1575232928097	0.027285475205056	0.021649810219528	0.049528483751453	0.621502020199999	0.0082580478	0.0299438156	0.7827689374		1715156694794831275	0	4939	5065	2083	5206		1715156746598897109	2.34963473026463	-1.13262268847299
716175710766	0.615798852286115	-0.099560718421172	-10.1770825642824	-0.104592747302798	-0.089266837795881	0.069534915518941	0.6205956491	0.0085937408	0.0300109542	0.783473892699999		1715156694869772195	6832	4939	5080	2079	5164		1715156746618896565	2.35186898370945	-1.11536720688183
716223726702	1.26622770392671	0.791748635844886	-10.3227968571186	0.050265122431347	0.019013176710619	0.277200448383077	0.616936595399999	0.0085937408	0.0325957903	0.786260144599999		1715156694944725275	6790	5009	5084	2036	5356		1715156746638898126	2.35410347231585	-1.09810990910183
716275737379	1.05512104759514	0.342927704100124	-10.0864582905054	-0.041772630449031	0.183058352994292	0.347737199331025	0.609954181	0.0102050672	0.0365233984	0.7914969554		1715156695019936084	6799	5019	5061	2032	5140		1715156746658897722	2.35633774140087	-1.08085430671901
716327727601	0.953036564583703	0.744045512166619	-9.57289034396409	-0.085755368352449	-0.057822299755259	0.465042720867263	0.60089047	0.0096008198	0.0392089424	0.798277953999999		1715156695094488382	6733	5070	5098	1980	5061		1715156746678890021	2.35853525466282	-1.06388257518793
716380756714	0.256786220026668	0.639350773591548	-10.161267740035	-0.056529343368404	0.007413953352726	0.523982570400892	0.5902154326	0.0066802907	0.0397796205	0.806200308799999		1715156695170561790	6757	5065	5089	2013	5042		1715156746698893774	2.36073039424312	-1.04690065023466
716432753574	0.945351489973813	0.890619782833009	-10.3295597753822	-0.00729576517638	-0.103220045886052	0.49105374865504	0.579876088199999	0.0058074889	0.0405517144	0.813619124099999		1715156695245318651	6724	5140	5112	1919	5197		1715156746718892728	2.36292137320645	-1.0299223299834
716484768726	0.078392084656237	0.238996497243456	-10.1497234327137	-0.073794171468143	0.08864513116178	0.505697206487868	0.5691674815	0.0041625932	0.0394439275	0.821239355199999		1715156695319763183	6752	5216	5108	1928	5427		1715156746738897324	2.36510933603173	-1.0129387513091
716537785549	0.727199372110143	0.340839682312309	-10.2849969955563	-0.057719630734047	-0.049490745926568	0.33248324510781	0.560137339799999	0.004028316	0.0400817442	0.8273825371		1715156695386860609	6678	5262	5112	0	5103		1715156746758895292	2.36729293976615	-0.995960331912162
716589784898	0.885499444144591	0.606958798954822	-10.2200367398679	-0.05619594472825	0.041869998115198	0.285148319761282	0.5544641281	0.0038269002	0.0408538381	0.831142298699999		1715156695462735414	6654	5305	5084	1900	5670		1715156746778896550	2.36955732381123	-0.978323984952478
716641793194	1.11412239487916	0.911617270415276	-10.3359205425858	0.013913247149955	0.018849159276984	0.32240777433474	0.5474481444	0.0034912072	0.0425994417	0.835707723499999		1715156695538046836	6635	5277	5098	1886	5056		1715156746798897482	2.37176844232638	-0.96068117288218
716693763435	0.608221037442982	0.862370935883	-10.4090769642114	0.036295327841011	-0.036203918997783	0.348493603659635	0.5406335765	0.0033233607	0.0427337189	0.8401388711		1715156695612745046	6659	5342	5117	1886	5585		1715156746818896381	2.37392609361537	-0.943033562983981
716746769026	0.778418248824402	0.394280326729267	-10.2529371389508	0.001680969595004	-0.061627936147036	0.390666190970125	0.5326440831	0.0028533905	0.0425323031	0.8452414047		1715156695687471628	6598	5314	5094	1905	4789		1715156746838891411	2.37603008107862	-0.925382938648155
716798777611	0.662033656977489	-0.039758329553111	-10.267232206285	-0.054651914668439	0.020410959695288	0.312789967795001	0.5245203125	0.0023834203	0.0417937785	0.850343938299999		1715156695756389141	6551	5291	0	1882	4883		1715156746858895875	2.37808178086013	-0.907717716813843
716850813736	0.700315529903024	0.061648464259319	-9.94835681076049	0.039008510586503	-0.039085684001466	0.079478530689727	0.520458427199999	0.003692623	0.0410552539	0.8528616358		1715156695830565214	6514	5389	5080	1943	5084		1715156746878895662	2.38007968922391	-0.890050514781447
716903768940	0.374489219262078	0.59014130047094	-10.4700063569486	0.0268779241733	-0.021952534653469	0.031497391385287	0.520257011399999	0.0037597616	0.0389739573	0.8530630516		1715156695905532598	6565	5787	5112	2018	4757		1715156746898895786	2.38197097682566	-0.872371279781188
716955754548	0.539008421539701	-0.043441863204329	-9.75653660030961	0.012302244830512	-0.064061853162719	-0.020735384730925	0.520257011399999	0.0041290239	0.0373626309	0.853130190199999		1715156695973760366	6523	5801	5070	0	4860		1715156746918890377	2.38375504562846	-0.854685847166713
717007748375	0.505949288231134	0.34733733723592	-10.4680447014868	0.039269600241871	0.093178979825315	0.119709224157116	0.5197870412	0.0044647169	0.0362884133	0.853499452499999		1715156696048760652	6485	5829	5051	2036	4878		1715156746938897748	2.38543345553207	-0.836978662174162
717059800903	0.853011059928685	-0.170629392253607	-10.0221258113265	-0.013757594746916	-0.068222010391046	0.091007380015816	0.517302913	0.0050018257	0.0360534282	0.855010070999999		1715156696123078107	6406	5942	5037	2088	5056		1715156746958897844	2.38700436537902	-0.81926810949856
717111827141	0.951243324491381	0.119577058612136	-10.1431826327681	-0.007762729147431	0.025108886129702	0.034052644516947	0.516027279599999	0.0062103205	0.0363891212	0.855748595599999		1715156696197994232	6429	5792	5084	2101	5033		1715156746978894970	2.38840558076907	-0.802308340787581
717164818575	0.861797373778745	-0.263389161955658	-10.6454880115389	-0.03047430060183	-0.015795750420154	-0.050093169609901	0.5163629726	0.0072845381	0.0358520124	0.8555471798		1715156696272661924	6415	5628	5075	2139	5145		1715156746998893119	2.38970450361165	-0.785339557992302
717216813570	0.393060612208582	0.030783475427586	-10.4483486518919	0.007974810917107	0.075377512282357	-0.094226967003775	0.5180414376	0.007720939	0.034576379	0.8545736701		1715156696347968578	6345	5384	5009	1872	5145		1715156747018895894	2.39090128647003	-0.768359319179309
717268851957	0.492874739135243	0.145751830101292	-10.190061288321	0.009874318886984	-0.056849892256298	-0.059124136119874	0.520055595599999	0.0083587557	0.0337035772	0.8533987446		1715156696423414945	6331	5370	5047	2533	4958		1715156747038895676	2.39199539785129	-0.75137470812243
717320810442	0.561854021206684	-0.670362144057452	-10.4775162941873	-0.041629244191466	0.055575136911018	-0.136842055174138	0.5226404317	0.0092986961	0.0323608052	0.851854556799999		1715156696497969150	6331	5394	5009	2392	4578		1715156747058895839	2.39298701120665	-0.734383480025855
717373801390	1.14852377310954	-0.122178619412658	-9.43702524496913	0.030288393232391	0.122619634787274	-0.227141725097401	0.5264001933	0.0106414681	0.0333678842	0.849504705799999		1715156696572260141	6293	5520	4968	2303	4616		1715156747078897396	2.39391165251519	-0.716706268343884
717425880760	1.17156489534862	-0.026169839585712	-10.0198718949198	0.097606135597679	-0.051200299770507	-0.350386378825381	0.533416177	0.01342772	0.0332671763	0.8450735582		1715156696647008419	6265	5576	4982	2359	5009		1715156747098897687	2.39472575499745	-0.699024742753554
717477828940	1.01261761145181	-0.270514100198447	-9.78965911771059	0.04871192943291	-0.084295822917031	-0.444063935696273	0.542278472199999	0.0151733236	0.0326293596	0.8394003465		1715156696721932649	6284	5642	4982	2345	5000		1715156747118897354	2.39542933042905	-0.681339026980928
717529833594	0.274714291834644	-0.645432431592792	-10.475397986859	0.056500344040847	-0.045948916446709	-0.407477129035142	0.5514764604	0.0157104324	0.0294738454	0.8334921497		1715156696797136306	6279	5632	4968	2369	4893		1715156747138896393	2.39602236156279	-0.663649815554825
717581875694	0.513122358198277	-0.653705242962762	-9.84287749767899	0.012235124848664	-0.028923321356049	-0.49134882690382	0.5613122653	0.0176910211	0.0276611032	0.826946136199999		1715156696871626138	6218	5689	4916	2233	4855		1715156747158896307	2.39650487191721	-0.64595646983623
717634800763	0.074276182903163	-0.76474672021605	-10.7557393613278	-0.040544422166179	0.078844257264233	-0.509964123186393	0.572020872	0.0189666545	0.0249419899	0.8195944595		1715156696946603536	6213	5721	4958	2065	4902		1715156747178895469	2.39686629151081	-0.628760988021351
717686794059	0.636439196993783	-0.31519707233794	-9.94427801701426	0.0836370900214	0.03550347018039	-0.521978475101581	0.583065171699999	0.0211150897	0.0253783908	0.811739243299999		1715156697013355731	6166	5750	0	1985	4794		1715156747198895639	2.3971316797195	-0.6115628890496
717738786288	0.681157386577129	-0.319985037266835	-9.98126656219363	0.0219000682994	-0.006159943616218	-0.523011015945718	0.5942101793	0.022491431	0.0244720197	0.803581903399999		1715156697087655305	6091	5797	4888	2607	4667		1715156747218897834	2.39730102235082	-0.59436183462376
717790776207	0.575481710673309	-0.222666033357847	-9.92035353606939	0.044799491959042	0.019998987400004	-0.511691416179904	0.6051873404	0.0235320793	0.023834203	0.7953238556		1715156697163077592	6054	5787	4841	2617	4574		1715156747238896198	2.397374263493	-0.577163397249076
717842835395	0.691540614229813	-0.150560719087207	-9.92367478944659	0.063271456079508	0.014221393613429	-0.458557091375079	0.615023145299999	0.0241027574	0.0233978021	0.787770763099999		1715156697238005161	5970	5806	4832	2612	4513		1715156747258897036	2.3973514488731	-0.559962691413348
717893797578	0.379030552486144	-0.50602571446821	-9.94267291990518	0.019513370378201	0.038098999462349	-0.485036735646169	0.6242547028	0.0248077127	0.0226592775	0.780452655699999		1715156697313491821	5881	5792	4766	2570	4462		1715156747278896996	2.40E+00	-5.43E-01
717945904416	0.827869750539958	-0.611208309625461	-10.5428050511777	0.031275160995293	0.016384051027331	-0.54861767601148	0.634761893699999	0.0261169154	0.0220214608	0.7719260535		1715156697388271570	5834	5815	4761	2477	4368		1715156747298895831	2.39701551582234	-0.525725514627241
717997805010	0.659712885879725	-0.334140294271521	-10.1397491511881	0.037375947065203	0.001594793967348	-0.547438295122738	0.6456719162	0.0267211628	0.0214507827	0.762795203899999		1715156697463181972	5872	5778	4700	2448	4293		1715156747318897282	2.39669861183696	-0.508607205550413
718048807780	1.124673014988	-0.331910745121166	-9.52630687196552	0.051659333035085	-0.116332743691437	-0.542821805241627	0.6565148001	0.0275939646	0.0206786888	0.7534965078		1715156697538351774	5736	5782	4639	2463	4246		1715156747338898386	2.39628243783506	-0.49149131930516
718100862874	0.254656898114085	-0.242243023150321	-10.4256551740467	-0.045046200544524	0.145992610100623	-0.521853040214238	0.6669884217	0.0273925488	0.0207793967	0.744231381		1715156697613298892	5707	5759	4625	2420	4326		1715156747358895401	2.39576710941447	-0.474381633197195
718151878326	1.00348087672889	-0.104297903010901	-9.94051954126358	0.08501818039558	-0.102776263379904	-0.495201555473811	0.6766563801	0.0278960883	0.0210479511	0.735436224399999		1715156697681416273	5562	5773	4550	0	4326		1715156747378897009	2.39514238492527	-0.456991451818123
718203817334	0.741133131851255	-0.390223050695098	-10.4872275408625	0.037273456975127	-0.030258728114561	-0.492630839363071	0.6859215069	0.0286346129	0.0196044712	0.726808914299999		1715156697756167888	5474	5764	4485	2481	4330		1715156747398896340	2.39445037953709	-0.439605800333176
718255811764	0.688466686677187	-0.239179324730765	-10.2304763008177	0.09303089142395	-0.012115286760799	-0.51511444370801	0.6954216188	0.029540984	0.0184966843	0.717711633999999		1715156697824852228	6148	5792	4513	0	4256		1715156747418893957	2.39369110525789	-0.422224449336284
718308868342	0.57586234402135	-0.311732391902059	-10.7395492740273	0.059324476574064	0.000709203244273	-0.508620292100339	0.713347624999999	0.0286010436	0.0178252983	0.6999870436		1715156697898666858	6077	5872	4494	2528	4218		1715156747438896920	2.39286429896776	-0.404841523543672
718361817051	0.77692640283145	-0.218496145528368	-10.1971234817922	0.018374706725813	-0.061489630701488	-0.499625931571787	0.7303672601	0.0275603953	0.0180938527	0.682195314599999		1715156697972798824	6002	5909	4448	2575	4167		1715156747458897092	2.39197028281142	-0.387464356170206
718415858800	0.474825141573138	-0.21426859096121	-10.1448719010293	0.027234053309477	-0.019855361874059	-0.496295415602047	0.746648370599999	0.0255798066	0.0177245904	0.6644707242		1715156698047876596	5858	5918	4452	2673	4078		1715156747478897733	2.39102441154597	-0.37036995593368
718465861964	0.52973640653193	-0.46275611625798	-10.1938676948666	0.101019068080777	-0.061112423061403	-0.478221306942493	0.768300569099999	0.0222900152	0.0180602834	0.6393944571		1715156698121859788	5773	5937	4396	2781	4054		1715156747498897329	2.39003103776331	-0.353279146360152
718518830067	0.385198281335644	-0.846117281826958	-10.4456960915565	-0.034433414134991	0.015566631181434	-0.525305329224821	0.7835746006	0.0215514906	0.0158447096	0.620662787699999		1715156698196855068	5661	5970	4358	2790	4050		1715156747518895925	2.38899017426273	-0.336192020843899
718570927765	0.52526572739128	-0.166948840577341	-9.92885949860811	0.070439786917134	-0.022498613754396	-0.563222551298015	0.7981436768	0.020812966	0.0159454175	0.601863979699999		1715156698271217823	5585	5965	4302	2874	4036		1715156747538897600	2.38790161423661	-0.319105226624882
718617830302	0.449745280048064	-0.655058776463568	-10.2627687971353	0.001460652311746	-0.061810799606573	-0.553019148924081	0.8122427828	0.0196716098	0.0150054771	0.582763048		1715156698346092462	5501	5988	4288	2893	4045		1715156747558897375	2.38676562696413	-0.30202314997786
718671848536	-0.413424185801483	-0.465567556949518	-10.9335649486958	0.050915183408678	-0.046961508549806	-0.605727667560116	0.831880823299999	0.0154754473	0.0138641209	0.5544976974		1715156698413660049	5422	5988	4223	2968	0		1715156747578895058	2.38554215499335	-0.28436754110991
718721866619	-0.894874736863747	-0.047299287551153	-10.1636315465569	0.021008945470335	-0.011259234434339	-0.508029902576182	0.844838573099999	0.0114471313	0.0121520866	0.5347253797		1715156698488621711	5403	5993	4214	3029	3670		1715156747598896330	2.38425385873506	-0.266713359232711
718773885791	-1.65846454212963	-0.045234226513817	-10.5439413617312	-0.000497324527626	-0.005478228992766	-0.4283810793795	0.855950011399999	0.0051025336	0.0095336812	0.5169000814		1715156698564089059	5375	5988	4195	3043	3647		1715156747618938385	2.38289820484356	-0.249028022875412
718821898233	-0.891527545327693	0.020332712663757	-9.98885950154066	0.020448275159468	-0.044703888637097	-0.36198291405505	8.65E-01	-3.36E-05	0.008392325	0.5011560797		1715156698638920545	5370	5979	4204	3113	3670		1715156747638897838	2.38148356089611	-0.231420644692317
718874970400	-0.68638951507695	-0.236369254012405	-10.3236724709093	0.024621598390433	-0.05325332233247	-0.331212750820274	0.877803625699999	-0.0068817065	0.0084594636	0.478866064499999		1715156698714150905	5295	5947	4139	3118	3647		1715156747658896138	2.38000174626374	-0.21378429128216
718925884097	0.37957689778991	-1.22082306644916	-10.2859544424116	-0.081546841460824	0.018150741119921	-0.562888857213428	0.888411524499999	-0.0068145679	0.007385246	0.458892331		1715156698789338588	5230	5923	4129	3123	3590		1715156747678896733	2.37851464535157	-0.196828874018519
718977878249	0.89635365030989	-0.65753327681832	-9.80572236376106	0.00254768210798	0.032708882090515	-0.638497665036459	0.899522962799999	-0.0050018257	0.0075530925	0.436703023699999		1715156698864514350	5234	5951	4115	3198	3525		1715156747698896306	2.37697646709078	-0.1798788874143
719024941712	0.898926788733527	-0.402737773951143	-10.097497570914	0.048461879412497	0.045574962856581	-0.722496828452812	0.910500123899999	-0.0036590537	0.0074859539	0.413372360199999		1715156698939446449	5131	5956	4035	3259	3464		1715156747718897015	2.37538706183602	-0.162932656650276
719077834800	0.853940888124704	-0.768755882792174	-10.5191623097836	-0.048163060254623	0.03316064783815	-0.780932708039658	0.925069200099999	-0.0038269002	0.0099029435	0.3795345058		1715156699014893054	5075	5933	4054	3324	3450		1715156747738896525	2.37374662687104	-0.145992314669487
719130903439	0.844033095964044	-0.276689373033586	-9.96838837592005	0.031980118461188	-0.00216003742515	-0.761062330514358	0.935710668199999	-0.0018127422	0.0103057751	0.3525783579		1715156699089274644	5019	5993	3952	3301	3408		1715156747758897087	2.37205499593729	-0.129056108703624
719185980964	0.938133083027601	-0.414565318660624	-10.2023830097556	0.035493928573547	-0.006742189693105	-0.777278251812824	0.945647180999999	-0.0001678465	0.0103729137	0.324984393299999		1715156699164551973	4972	6054	3952	3361	3380		1715156747778896045	2.37026326315221	-0.111648989952717
719234846872	0.696833971397578	-0.306678542578592	-10.2733954050898	0.061009046638026	0.007322540348309	-0.788471318137345	0.956322218399999	-0.0020477273	0.0124877796	0.2919522021		1715156699239620208	4883	6110	3914	3441	3375		1715156747798892082	2.36840811720949	-0.094251085519119
719287898903	0.433890744844824	-0.309198343379795	-10.31668509624	0.033966801264279	0.016797384031484	-0.791317305236258	0.964781681999999	-0.0015777571	0.0120513787	0.2627469111		1715156699314201354	4916	6195	3891	3464	3328		1715156747818903950	2.36648781143106	-0.076846316314813
719342862913	0.943917950039356	-0.274458453910052	-10.0003430185854	0.040217619010912	-0.048833315483158	-0.761064061569067	0.971864804299999	-0.0008056632	0.0120178094	0.235119377199999		1715156699390074014	4878	6227	4672	3488	3282		1715156747838896189	2.36450573592298	-0.059465759874605
719392916767	0.811719410727918	-0.503053859050571	-10.0537063599824	0.020370604482395	-0.029061364646678	-0.755384737386418	0.978075124799999	-0.0002014158	0.0115814085	0.207861105599999		1715156699465172290	4799	6302	4302	3586	3235		1715156747858905211	2.36245837882377	-0.04207798572213
719445905494	0.378512519961409	-0.347415553571283	-10.4970393253028	0.019454485389786	-0.00753986937757	-0.772452271022464	0.9846547076	-0.0035583458	0.0140655367	0.173821835399999		1715156699540048599	4771	6288	4190	3689	3300		1715156747878905267	2.36040619976031	-0.025182110758975
719498893439	0.593757847000286	-0.337550029649771	-10.092484711188	0.016491622969721	-0.003425802001007	-0.811014177816539	0.989320840299999	-0.004028316	0.0140655367	0.1448850988		1715156699607906341	4733	0	4115	3745	3287		1715156747898890898	2.35830456525338	-0.008304686559389
719551885861	0.743414301590994	-0.323102475167624	-10.2083498092055	0.068406721418589	-0.005002098962198	-0.833983942218472	0.9931813098	-0.004028316	0.0133270121	0.115612669199999		1715156699682374477	4677	6340	4031	3745	3287		1715156747918897969	2.35614974186995	0.008584422738563
719601921354	0.464735636170022	-0.524118347454443	-10.4783533295333	-0.015450349870041	0.016063703957113	-0.818976896317821	0.996504670499999	-0.0074523846	0.0152068929	0.0817412455		1715156699756846666	4644	6349	3970	3900	3292		1715156747938896890	2.35394484770654	0.025460073645177
719653921028	0.513662566022202	-0.192527116611227	-10.2870767244398	0.066952115314755	0.003650009476022	-0.788482836309059	0.998418120599999	-0.007720939	0.0152068929	0.0529387861		1715156699831592082	4653	6335	3942	3956	3292		1715156747958895278	2.3516891059343	0.042328545476484
719707936367	0.757884725492075	-0.582077455676533	-10.0723245512127	0.051171250508679	-0.032905991381289	-0.809288049956004	0.999525907499999	-0.0080902013	0.0142669525	0.0252105443		1715156699906749010	4649	6396	3886	3947	3212		1715156747978896302	2.3493035611412	0.059767034313505
719756911669	0.950179933043569	-0.543923812240548	-10.3302857515692	0.018144994517632	-0.011156083755477	-0.831976251651688	0.9998616005	-0.0078216469	0.0127899033	-0.0034240686		1715156699981311559	4616	6349	3839	4022	3170		1715156747998937837	2.34685299151829	0.077232503939981
719808968154	1.17444541922099	-0.54508690120317	-10.3686888397216	0.046492733941304	0.008214392425781	-0.784822920601991	0.999190214499999	-0.0091308496	0.0148376306	-0.0360198589		1715156700049684762	4560	6382	3787	4059	0		1715156748018897528	2.34435238975096	0.094618119664795
719860903762	1.76578115364089	-0.591328756689839	-10.2421866123557	0.059436379274118	-0.023712195457199	-0.728589808131777	0.997881011799999	-0.005706781	0.014099106	-0.0629088682		1715156700125209569	4513	6438	3764	4143	3170		1715156748038946749	2.34178053858259	0.112072979275644
719914927734	1.76090653334185	-0.84605225376673	-10.1352389802873	-0.03122104264911	-0.083207189242434	-0.694926653004848	0.9960347003	-0.002685544	0.0128234726	-0.0879179967		1715156700199396133	4457	6420	3726	4139	3118		1715156748058898156	2.33916125721579	0.129433738866971
719964927182	1.24971072275936	-0.300653564934339	-10.3599876468718	0.055732138579656	0.024140279877077	-0.684472747040878	0.9931813098	-0.0039611774	0.0162139719	-0.115142698999999		1715156700275677204	4368	6448	3741	4214	3188		1715156748078896291	2.33653707512846	0.146430753505581
720016988282	1.01752671854235	-0.469604959239438	-10.2156037258565	0.039415449923445	-0.183806418299738	-0.759770564227615	0.990025795599999	-0.0037261923	0.0147033534	-0.139983980999999		1715156700350799322	4363	6471	3717	4195	3095		1715156748098898124	2.33386112831525	0.163422914888217
720071908748	0.262031134942825	-0.366988597841002	-10.4019037115812	-0.004587552451243	-0.005341574499034	-0.821842657387828	0.985930340999999	-0.0045654248	0.0142669525	-0.1663023122		1715156700425976276	4330	6518	3647	4251	3085		1715156748118897691	2.33113422588086	0.18040499966075
720121936702	0.821499411790445	-0.441371748249977	-9.86975030703544	0.067167914586836	-0.095408162171009	-0.838665246782613	0.981297777599999	-0.0057739196	0.0138305516	-0.191814980199999		1715156700493844509	4288	6542	3656	4340	0		1715156748138898330	2.32835594639232	0.197379688977614
720173859258	0.820830645683407	-0.034877215581201	-10.073896915096	0.030709832233112	-0.031679466299469	-0.84660532841463	0.975490288699999	-0.0092986961	0.0174224667	-0.2191068211		1715156700568232774	4275	6565	3633	4326	3057		1715156748158897771	2.32552662804595	0.214344901334416
720226960868	0.801661323376372	-0.108553350231982	-9.65880687844157	0.015973328129105	0.044929316900994	-0.831093480329354	0.969548522599999	-0.0091644189	0.0167175114	-0.244015241699999		1715156700635856389	4176	6621	3633	4368	0		1715156748178874220	2.32264944476401	0.231282005680076
720281969018	0.496994485946372	-0.25419633139763	-10.3228354355633	0.057557277776093	-0.069052800137853	-0.814577221038956	0.9632039249	-0.0103057751	0.0155425859	-0.2680508605		1715156700703366041	4134	6673	0	4466	3048		1715156748198897188	2.31970715648619	0.248248526390792
720331919631	0.741848221318051	-0.845164657277241	-10.2345632778704	0.017419779342398	-0.14885074787201	-0.834425161432071	0.955885817499999	-0.0149047692	0.017791729	-0.292724296		1715156700777736902	4101	6664	3609	4419	3001		1715156748218897808	2.31670971148809	0.26518587198242
720384944638	0.310599296218901	-0.762882826040312	-10.6031510910689	0.027735008474683	-0.002294569192239	-0.861612906947499	0.948030601299999	-0.0166168035	0.0162475412	-0.317263454299999		1715156700853123903	4059	6720	3562	4513	2982		1715156748238917003	2.3136510886864	0.282128509728708
720438863655	0.357832683493569	-0.592124802438356	-10.5780119736373	0.003758774639416	0.103264320939174	-0.885337544360415	0.939537568399999	-0.017791729	0.0149047692	-0.341567627499999		1715156700927484989	4027	6747	3572	4588	2982		1715156748258896622	2.31054021607555	0.299027025555129
720488966502	0.406353334099799	-0.278550782991293	-10.2755230647683	0.018443089628585	0.131952075293833	-0.86964520053226	0.930306010899999	-0.0173553281	0.01342772	-0.366106785799999		1715156701001829624	3999	6804	3558	4625	3005		1715156748278896862	2.30733104141395	0.316128735048446
720541914694	0.808440608252957	-0.425029283399321	-10.1265588302254	0.016030620422353	-0.035654392351602	-0.675239567541574	0.921812978	-0.0212829362	0.0157440017	-0.386617628099999		1715156701077098846	3989	6799	3553	4616	2996		1715156748298896555	2.30407804863723	0.333221679401384
720592996474	1.05393103409297	-0.041105670775147	-10.4610795386493	0.071711762588026	-0.050542353339635	-0.47815233107026	0.915569088199999	-0.0213165055	0.0156768631	-0.4011867043		1715156701151887893	3905	6851	3511	4700	2959		1715156748318896163	2.30078118664016	0.350306141237076
720644949609	0.920919351767748	0.060860706848535	-10.3144522226214	0.081881134756656	0.042183427208365	-0.222338547623875	0.9111715099	-0.0203094265	0.0143340911	-0.411223925		1715156701226111173	3886	6883	3521	4771	2968		1715156748338895369	2.2974405306744	0.367381737342927
720698989396	0.952648222853243	-0.299343085123971	-10.5031090006053	0.083561747529686	-0.050067674003653	0.057270709159233	0.9102315695	-0.0197387484	0.0140319674	-0.4133387909		1715156701301063776	3877	6907	3507	4822	2991		1715156748358903309	2.29405455931527	0.384456152133316
720745970407	0.698207743968814	-0.45991482841745	-10.6594475633084	-0.031959963741282	0.011469209081833	0.006297005386344	0.9094259063	-0.0226257082	0.0175903132	-0.414815840099999		1715156701377471923	3830	6954	3483	4827	3019		1715156748378895837	2.29064707308157	0.401410663522549
720796985411	0.998087054861336	-0.061537806959078	-10.3587204034149	0.058214371163178	0.036015229873362	-0.050541658421038	0.9088887975	-0.0210143818	0.0186309615	-0.416024334899999		1715156701452205896	3773	6977	3432	4874	2991		1715156748398896143	2.28716898889794	0.418357701474807
720849009023	0.567303080392815	0.265505843582376	-10.6441342588424	0.036153264841612	0.038590048916656	0.030029779484598	0.9079488571	-0.0203429958	0.0196716098	-0.418038492899999		1715156701526890039	3745	7029	3403	4958	2977		1715156748418896265	2.28362169621422	0.435290225579756
720895919226	0.717975324429944	-0.033504561821395	-10.2439518684625	0.014532731709021	-0.039154272883103	0.063953075515757	0.908150272899999	-0.0197387484	0.0209808125	-0.417602092		1715156701594618082	3717	7071	3366	5051	0		1715156748438896847	2.2800051397561	0.452208498095486
720950022709	0.573322961736842	0.220913874194584	-10.614527056086	0.063827482503225	0.154460979669128	0.095217621317392	0.907881718499999	-0.0215514906	0.0247741434	-0.4178706464		1715156701662788391	3614	7095	3413	5061	0		1715156748458898361	2.27631928819594	0.469112634249041
720999992984	1.74056634062454	0.090367166343937	-9.90723452677726	-0.082537071333142	-0.110319409173822	0.247790627833114	0.909526614199999	-0.0179260062	0.0262511926	-0.4143794392		1715156701730588197	0	7099	3385	5117	2977		1715156748478896084	2.27258678072085	0.485900756206388
721051932937	0.802070123372972	-0.080796497183153	-10.5125186339855	-0.086239223110624	0.028631634476469	0.25755254467734	0.911607910799999	-0.0162139719	0.0287017515	-0.409679737199999		1715156701805633783	3572	7165	3342	5286	3019		1715156748498899500	2.26880256260378	0.50268231664224
721099925669	1.1403940965373	0.784101043701171	-10.5405768537342	0.068658989352846	-0.10479715323884	0.381865042778659	0.913957761799999	-0.0135284279	0.0306487709	-0.404342218499999		1715156701881263256	3530	7216	3306	5441	3071		1715156748518898814	2.26496850285904	0.519448941270918
721152976898	0.512150846285	0.365056789528205	-10.3499864773392	-0.051246222654554	0.0036650875451	0.487422062455526	0.917113275999999	-0.0164153877	0.0389739573	-0.396352725099999		1715156701956474542	3483	7292	3314	5169	3123		1715156748538896428	2.26108420097008	0.536202496877462
721203960834	0.444306559592857	0.48098859610632	-10.1586046583056	-0.045282501995809	-0.03595701067522	0.526706285116257	0.921443715699999	-0.015106185	0.0417937785	-0.385912672799999		1715156702031706809	3446	7277	3300	5033	3141		1715156748558898734	2.25714844746621	0.552948185243064
721257894380	0.307364113689959	0.674178268279507	-10.5253827917337	0.03766096355849	0.023051941646914	0.622901394744628	0.9263448335	-0.0143340911	0.0442107681	-0.3737270169		1715156702107597351	3418	7235	3300	5084	3174		1715156748578897974	2.25318132670277	0.569601535727031
721308083909	0.257420919467322	0.336975700360536	-9.63004606338143	-0.040454153488793	0.057446918877234	0.604215125219005	0.930641703899999	-0.0166839421	0.0508574895	-0.361910623299999		1715156702175671100	3408	7231	0	5258	3216		1715156748598897013	2.24914621350213	0.586238365353117
721360961734	0.481185799178853	0.675797466979175	-10.0981136569857	-0.013138224620553	-0.040976432668071	0.62829063410554	0.9356770989	-0.015441878	0.0525695238	-0.3485500419		1715156702250053167	3366	7170	3249	5300	3202		1715156748618918790	2.24503847107182	0.602877460146597
721414976843	0.34952724849563	0.748278546626493	-9.90978421126008	-0.022684777036971	0.049827835541545	0.718474722837492	0.940813201799999	-0.0131927349	0.0555236222	-0.334014534999999		1715156702324492692	3324	7240	3193	5239	3202		1715156748638907945	2.24086948225757	0.619472524527622
721464969022	0.411751759077236	0.59896637542881	-10.4111473407447	-0.106043587530402	-0.032284881877839	0.764115578125107	0.9460835819	-0.0110107304	0.059081968	-0.3182705333		1715156702399846553	3422	7343	3179	5319	3268		1715156748658898421	2.23663245454555	0.636051514960271
721518010928	0.172344178548548	0.232557678101304	-10.4747211105108	-0.086186717225257	0.04005734664756	0.701978237518187	0.949809774199999	-0.0126891954	0.0664000754	-0.305312783499999		1715156702468694210	3609	7521	3146	0	3277		1715156748678898103	2.23217984255521	0.653182022167265
721570956115	0.041372884043702	0.652195788247883	-10.4790103321373	-0.056262773426855	-0.047063432718151	0.673082273900555	0.954106644599999	-0.0118499629	0.0684142334	-0.291247246799999		1715156702544286012	3562	6958	3132	5347	3314		1715156748698896955	2.22765011435178	0.670291539723061
721624964108	-0.090589184197318	0.614016718109697	-10.553156933844	-0.068496819487217	0.025104204791848	0.699589248862332	0.958067822	-0.0115142699	0.0713011932	-0.2771817101		1715156702618822336	3581	6865	3071	5427	3342		1715156748718914018	2.22303898561978	0.687395991769622
721674984514	-0.115369441721308	0.851249822409823	-10.7031885053575	0.001008591119678	-0.005097249234668	0.659802554282929	0.9603169651	-0.0145019376	0.0782836076	-0.2671780587		1715156702694080352	3399	6912	3062	5492	3366		1715156748738911849	2.21835510940988	0.704463016934646
721728000147	0.548311197011917	0.803549402145296	-10.2814945403933	0.015824237921439	0.001352326413887	0.708720562449941	0.964009588099999	-0.0116821164	0.0790557015	-0.2535153536		1715156702768549442	3226	6973	3052	5501	3352		1715156748758900518	2.21359640631224	0.7215009114567
721782987196	0.799244982949644	0.465500738791003	-10.3282492773056	-0.032405789391329	-0.005766217615442	0.697570173281888	0.967601503199999	-0.0083587557	0.0791564094	-0.239483386199999		1715156702843015670	3118	6944	3029	5441	3408		1715156748778913339	2.20894101655506	0.737883196766398
721836015454	0.499576538328826	0.63292556284964	-10.3779418212354	0.019993652755445	-0.03363604081808	0.671544032054925	0.969783507699999	-0.0085937408	0.0829833096	-0.229177611099999		1715156702919266462	3076	6944	2907	5417	3586		1715156748798897429	2.2042289406265	0.754223822510151
721888079105	0.501985353036224	0.439597285923361	-10.3392850505828	-0.030527586710172	0.111573874560547	0.671577321568551	0.972939021899999	-0.0057403503	0.0828490324	-0.2155484753		1715156702980737447	3076	6902	0	5510	0		1715156748818914553	2.1994457631044	0.770573069628803
721942976361	1.19559678219072	0.576741136149875	-10.3918429208159	-0.05123297758932	0.002413303524667	0.670510991868084	0.975792412399999	-0.0011749255	0.0829833096	-0.2022550325		1715156703055611610	3043	6888	2827	5515	3581		1715156748838896092	2.19460785609038	0.786874619585905
721992991347	1.24035355021879	0.232235789203178	-10.4055581424355	-0.071743687231593	-0.086926218803324	0.667170722070852	0.978444387099999	0.0031890835	0.0829833096	-0.189028728299999		1715156703125256776	3038	6883	2725	0	3544		1715156748858897760	2.18970196419778	0.803173728546564
722045989543	0.99330201254189	0.660239613167569	-10.5617786317169	0.006914394786646	0.034543666923525	0.621281327274506	0.979787159099999	0.0045989941	0.0863066703	-0.180334279599999		1715156703200676679	3048	6879	2626	5539	3619		1715156748878897152	2.18468099138062	0.819624012890979
722097980472	1.12539307289086	0.282995396108925	-9.76008289461433	-0.047884468637465	-0.056247784823345	0.578125933653235	0.981902024999999	0.0078552162	0.0848296211	-0.168987856199999		1715156703276523351	2996	6827	2607	5567	3680		1715156748898896144	2.17960347394452	0.836056572235356
722153045405	1.10419195249527	0.740045482745021	-10.444739813745	-0.006392505198707	0.076596108218151	0.624381979152658	0.983849044399999	0.0115142699	0.0844267895	-0.157171462599999		1715156703351657152	2935	6799	2566	5548	3675		1715156748918894936	2.17446942421205	0.852471376735946
722206095804	1.28607572921291	0.816381776515766	-10.0318943411469	-0.054500855177983	-0.074989439777263	0.639817660830757	0.984755415499999	0.0124877796	0.0885222441	-0.1491148306		1715156703425802946	2813	6747	2556	5618	3755		1715156748938895831	2.16927830708788	0.868870120319475
722254991629	0.963255906911566	1.02957203418835	-10.0265693467319	0.001530910350402	0.071680312320028	0.689920975419935	0.986668865599999	0.0152740315	0.0894286152	-0.1349821553		1715156703500751256	2706	6752	2566	5604	3741		1715156748958897225	2.16403058720906	0.885251289003364
722309024543	0.808927880313247	0.697306849606335	-10.723257479918	0.000222573688103	-0.021789692755784	0.672739924542425	0.9884480385	0.0172546202	0.0886565213	-0.121487296699999		1715156703576064109	2645	6725	2533	5665	3787		1715156748978895480	2.1586964542987	0.901706829373287
722358990780	0.985120240456238	0.440580817067995	-10.026335537976	-0.083451093186393	0.030990365045033	0.668831469326625	0.990092934199999	0.0196716098	0.0870451949	-0.108059576699999		1715156703643427610	3333	6682	0	5604	3839		1715156748998895980	2.15335820112823	0.918163075129072
722411045006	0.864589634845778	0.572133788484893	-10.3718698078453	-0.035875634459161	-0.060892096415469	0.644993114935162	0.990797889499999	0.0185302536	0.0905364021	-0.098693742		1715156703717348575	3198	6607	2524	5595	3905		1715156749018896504	2.1480164199455	0.934618197838949
722463010127	0.491828225756995	0.582447238836996	-10.4528576537489	-0.038997371083006	0.227126245473565	0.643507204204953	0.991939245699999	0.0202758572	0.0905699714	-0.085937408		1715156703792064905	3127	6560	2566	5637	3942		1715156749038897272	2.1426710521857	0.951072377734214
722517040992	1.30683078634142	0.817356466766819	-10.453843157655	-0.082897771535658	-0.14124467657496	0.647317455355556	0.992912755399999	0.0218871836	0.0903349863	-0.0738860293		1715156703866639137	3151	6570	2491	5689	3980		1715156749058895033	2.13732296739328	0.96752293968118
722566986145	0.741313456854224	0.642478623288497	-10.0862911172449	-0.041911543428203	0.04995790599366	0.659704150480651	0.9932148791	0.0209136739	0.0938597628	-0.0650573034		1715156703942026138	3109	6612	2331	5684	4036		1715156749078894773	2.13187802160882	0.984259262704465
722618982874	1.09046935128681	0.584056318001449	-10.1093762247562	-0.028333820245787	-0.09209973379356	0.580843423229552	0.994020542299999	0.0223907231	0.0930540996	-0.0522338308		1715156704017081022	3076	6546	2453	5721	4040		1715156749098924988	2.1263670610192	1.00100220022564
722673061664	0.405354934179596	0.087594879485853	-10.3556458182752	-0.032701121472651	0.030389270861651	0.481855922619206	0.9946919283	0.022491431	0.0907713872	-0.0421630408		1715156704093202829	3076	6504	2397	5726	4096		1715156749118896147	2.12081477854306	1.01767671435021
722722042933	1.01702512569576	0.688113416260108	-9.91818262177109	-0.001198083873764	-0.070690881396036	0.426579317744007	0.9950947599	0.0226257082	0.0900328626	-0.0337707158		1715156704161994934	3127	0	2350	5740	4115		1715156749138895037	2.11519737226896	1.03435515435487
722774000721	-0.089163626639917	-0.263562399630714	-10.4659953677415	-0.073335333779457	0.037787601029513	0.099302677402978	0.995128329199999	0.0189666545	0.0903685556	-0.0340728395		1715156704236399650	3123	6467	2266	5750	4186		1715156749158899419	2.10952098034313	1.05101871709062
722827019364	0.597937324642017	0.234409571311995	-9.9937086951375	0.000418491383338	-0.089326775565164	-0.069973975075344	0.9952626064	0.0175903132	0.0874144572	-0.0379668783		1715156704298310041	3019	0	2167	0	4181		1715156749178896306	2.10388704351654	1.06737278694204
722881076221	-0.035105306982342	0.200556109287962	-10.4916114550352	0.023029575254946	-0.001996734805797	-0.037541774616142	0.995363314299999	0.0137298437	0.0845610667	-0.0431701198		1715156704373507738	2987	6387	2148	5778	4209		1715156749198896177	2.09817847896274	1.08370369128031
722933089060	0.56459685364142	-0.240292765865381	-9.96142788925766	-0.032750878892549	-0.05878212381807	-0.029907282396833	0.9950947599	0.0102386365	0.0843596509	-0.0499175491		1715156704448547363	3034	6354	2032	5726	4214		1715156749218890658	2.09239779109133	1.10000425872346
722985029800	0.261974235390126	-0.997608404498919	-10.7402390098571	-0.144912481896758	0.15390992170532	-0.242757036991026	0.995161898499999	0.0073181074	0.0806670279	-0.0555236222		1715156704524582386	2991	6349	1971	5689	4270		1715156749238913674	2.08653522429575	1.11630179103384
723039026944	1.7266954900518	-0.238852120336703	-9.1385712907046	0.13282193028488	-0.286024366601864	-0.380507929176668	0.994759066899999	0.0103729137	0.0761687417	-0.0673400158		1715156704599658012	2968	6293	1928	5750	4335		1715156749258898484	2.08061036994305	1.13254160810859
723088059958	0.713121746918931	-1.1293231788814	-10.1697842239677	0.02091284904747	-0.032140367938	-0.761623125660902	0.993886265099999	0.0089294338	0.067809986	-0.0864409475		1715156704668525457	3019	6293	1919	0	4387		1715156749278894634	2.07467134215546	1.14859494180283
723140078228	0.740324153555929	-0.396751283420063	-10.571443116641	0.067514903670927	-0.063866614326492	-0.629453037342332	0.991771399199999	0.0057403503	0.0670378921	-0.108764532		1715156704736337423	3048	0	1919	5736	4424		1715156749298896537	2.06865817234423	1.16462591094336
723192013411	0.845720026137679	-0.432506341281719	-9.37192470402717	0.020166820644139	-0.080453497320049	-0.67896060279566	0.989723671899999	0.0036254844	0.063445977	-0.1280333102		1715156704804560661	2991	0	1896	5792	4452		1715156749318897148	2.0625730640533	1.18062852853157
723247044570	0.755700074929371	-0.483083887885138	-10.5904611208438	0.01301330259978	-0.016638725169245	-0.74251114983503	0.986970989299999	0.0017791729	0.0598876312	-0.149148399899999		1715156704872524499	2912	6115	1845	0	4494		1715156749338896818	2.05641604731279	1.19660275392958
723300110761	0.733039257244765	-0.662397083462402	-10.0509380643129	0.026490380139234	-0.04107707935133	-0.797476198152202	0.983076950499999	-0.0024169896	0.059753354	-0.1729490336		1715156704947789430	2977	6087	1779	5778	4545		1715156749358896484	2.05018696600256	1.2125490124564
723353096804	0.504281756877712	-0.417311804357171	-10.269860216701	0.020639373612438	-0.003551307628567	-0.816109936825323	0.978914357299999	-0.0041625932	0.0567656863	-0.196011142699999		1715156705016609430	2963	6077	1741	0	4522		1715156749378910372	2.043815168997	1.22864578256085
723407105365	0.84876801553145	-0.495495443027652	-10.175834025526	0.05755113169964	-0.047917271291955	-0.811631298820137	0.974248224599999	-0.0054046573	0.0530730633	-0.2189054053		1715156705091860055	2954	6054	1643	5815	4597		1715156749398892569	2.03733249748973	1.244668653336
723454156561	0.611774638271331	-0.432075256388075	-10.3318347345769	0.00838738866542	-0.050442871789353	-0.783567040410937	0.969481384	-0.0066802907	0.0505553658	-0.239718371299999		1715156705166515111	3080	6026	1620	5843	4653		1715156749418895639	2.0307225236338	1.26065896732001
723507064457	0.368587594002857	0.147120031448267	-9.43854266379475	0.083778004532579	0.035370615892698	-0.812513670668308	0.9639424495	-0.0100372207	0.052032415	-0.2607327531		1715156705235917806	3179	0	1554	5872	4681		1715156749438896249	2.02399309587782	1.27659706838775
723560074948	0.247499591971654	-0.294027917983196	-10.3054318808197	0.03499243037315	-0.016057652547714	-0.848769013642265	0.957967114099999	-0.0122192252	0.0495818561	-0.2822171051		1715156705311343193	3109	5984	1502	5848	4677		1715156749458897236	2.01714366889813	1.29248432420182
723614137651	0.433720137518271	-0.681775226214528	-10.2843025835514	-0.025720689133498	-0.017414468624677	-0.828809952852666	0.9514211006	-0.013763413	0.0469634507	-0.303902872899999		1715156705380904197	3698	5947	1474	0	4733		1715156749478896208	2.01013517941829	1.30840946016988
723664109957	0.232830631557479	-0.472708332082256	-10.3398064441084	-0.003997969937718	0.038402624793753	-0.818531948678696	0.944908656399999	-0.0185302536	0.0487090543	-0.323070943199999		1715156705456158638	3043	5862	1441	5839	4771		1715156749498895994	2.00301683617641	1.32428657306172
723717111063	0.57402778553795	-0.218945241002738	-9.96829835954904	0.067765457195233	-0.047075183916461	-0.826479420582738	0.937691256899999	-0.0201080107	0.0460570796	-0.343749631999999		1715156705525351285	3595	5858	0	5843	4832		1715156749518897531	1.99578862517757	1.34011564457826
723772057782	0.249129421663191	-0.634346097172051	-10.9820884488463	-0.001970752470449	0.031495277501171	-0.836763749764297	0.930104595099999	-0.0220550301	0.0431701198	-0.363991919899999		1715156705584938049	0	5754	1366	5787	0		1715156749538896825	1.98845232612446	1.35589275917641
723822213566	0.625573957977816	-0.463816950422525	-10.1676074644505	0.066032251151863	0.00903656747064	-0.833311560622254	0.922215809599999	-0.0220550301	0.0398803284	-0.383864945499999		1715156705659515857	3118	5717	1366	5815	4977		1715156749558897049	1.98100714279417	1.37161967973827
723876107604	0.905698109499365	-0.717996074957028	-10.1381580826044	0.020568874744957	0.043885357753683	-0.840836655177409	0.914494870599999	-0.0253783908	0.040618853	-0.4017238131		1715156705734006166	3127	5712	1366	5764	5051		1715156749578896250	1.97361910149643	1.386951806409
723926120863	0.465438852535933	-0.176896106231864	-10.2750507710814	0.079159750307245	-0.005398213485577	-0.823741491245054	0.9064382386	-0.0261504847	0.0389739573	-0.419649819299999		1715156705809119462	3231	5642	1348	5721	5051		1715156749598897080	1.96611843986144	1.40223069794198
723978116757	0.625644319800287	-0.28889307584539	-9.7727746184051	0.072675760323607	-0.060350467706396	-0.821692921155538	0.898146621499999	-0.0266540242	0.0371276458	-0.437273701799999		1715156705884122133	3287	5637	1278	5712	5084		1715156749618896769	1.95850658659498	1.41745341413607
724029152709	0.378662011434696	-0.431915937640517	-10.1022848051905	0.026356666565972	0.020140875629456	-0.849580145931276	0.890224266699999	-0.0305144937	0.0398803284	-0.4527155798		1715156705958937168	3231	5557	1221	5768	5145		1715156749638895817	1.95078377542225	1.43261952827709
724079057117	0.716287517473474	-0.404837559241987	-10.0263589188516	0.003739804297987	-0.135755718475982	-0.852800640058481	0.881026278499999	-0.0311523104	0.0391082345	-0.470339462299999		1715156706033735275	3268	5515	1165	5773	5164		1715156749658910849	1.94294391867227	1.44774079359571
724130079084	0.303124357228353	-0.473802557059749	-10.148142885524	0.0047482856663	0.018743635679979	-0.857372222385711	0.871794720999999	-0.0326964982	0.0388396801	-0.487224820199999		1715156706109117269	3361	5469	1170	5764	5183		1715156749678894925	1.93473530592718	1.46329346564886
724182137772	0.442282542951963	-0.475264702034182	-10.0912548771321	0.035509691158249	-0.049976939273076	-0.851445091063631	0.8625631635	-0.0343078246	0.0375304774	-0.503338084199999		1715156706183560848	3403	5417	1161	5773	5220		1715156749698896608	1.92639921473482	1.47879577886582
724232154973	0.101174281964497	-0.727276894325762	-10.6029102680504	-0.03229477510517	0.097455750219873	-0.855249483259836	0.854439392899999	-0.0383361406	0.0404510065	-0.5165308191		1715156706258427619	3324	5366	1132	5811	5248		1715156749718915157	1.91793614120234	1.49424606117033
724283138090	0.613662863170728	-0.555596166388317	-9.94262966528534	0.062502226965774	0.00427540734502	-0.841639331929959	0.8446707266	-0.0394439275	0.0385375564	-0.532409097999999		1715156706332925796	3310	5342	1165	5811	5258		1715156749738895068	1.90937008743566	1.5096005639358
724333123026	0.840935860601067	-0.383080229735746	-10.1937379310071	0.016304276869115	-0.051813247101334	-0.834812717949705	0.835103476099999	-0.0397124819	0.0365569677	-0.547381005799999		1715156706408827066	3427	5262	1165	5820	5286		1715156749758908791	1.9006707656048	1.52491418616587
724386127553	0.395984682961739	0.019628934608842	-10.5359030167043	0.016945580623768	0.028538161683396	-0.811799144547839	0.825435517699999	-0.0398467591	0.0360198589	-0.5618829434		1715156706483707189	3497	5197	1123	5801	5295		1715156749778896369	1.89210468295088	1.53972474535207
724436095009	0.779874950438737	-0.223823258835263	-10.3190185076236	0.04185191774811	-0.06136646782345	-0.673181543230188	0.8186880884	-0.0423644566	0.0383697099	-0.571349485999999		1715156706550966978	3544	0	1189	5792	0		1715156749798891059	1.88343057107698	1.55447935734208
724487099222	0.476836846721731	-0.106179816900519	-10.2999572488009	0.05834994270742	0.028451147055967	-0.510678083385129	0.812477767899999	-0.0422301794	0.0377654625	-0.580211781199999		1715156706626837730	3576	5080	1217	5754	5436		1715156749818896918	1.87464697439953	1.56918019346856
724537139111	0.814446570669487	-0.844566033796966	-10.6736432619214	-0.021101506962972	-0.082191218253704	-0.457108298452563	0.8078787738	-0.0423644566	0.0361205668	-0.586690656099999		1715156706701041221	3549	4996	1179	5764	5459		1715156749838897599	1.86576142371713	1.58381444621286
724589091543	0.322536183054372	-0.573157907368242	-10.3796907107293	-0.033536648733366	0.048177795025592	-0.403728064010582	0.804320427999999	-0.042633011	0.0356841659	-0.5915246353		1715156706775885820	3562	4939	1137	5754	5492		1715156749858896280	1.85677302011149	1.5983837408763
724640107919	0.709261710489913	-0.425460624021291	-10.2538934167623	0.006119534828014	-0.018909001338916	-0.444072324653706	0.802071284899999	-0.0444121839	0.0390075266	-0.5942437486		1715156706850877046	3600	5000	1146	5768	5510		1715156749878895356	1.84758556751129	1.613041607964
724690137454	0.778191381265968	-0.485268538447841	-10.2918312254905	0.012491925358261	0.037815497641931	-0.36068741934278	0.798412231199999	-0.0435729514	0.0378997397	-0.599279143599999		1715156706925534963	3661	5248	1189	5693	5534		1715156749898896964	1.83826151446118	1.62761556312675
724741112625	0.850012170373648	-0.040834585049073	-10.2872906594514	0.07796101156633	-0.015006105471891	-0.31697622400201	0.795827395099999	-0.0416595013	0.0368255221	-0.602904628		1715156706992743968	3666	5155	1156	5684	0		1715156749918896561	1.82880375865473	1.64210103172253
724793096928	0.953687502773106	-0.421201724467799	-9.84910850102305	-0.012987012206393	-0.008761554476198	-0.320048147029903	0.793578252	-0.0403502986	0.0355163194	-0.6060265729		1715156707068435668	3717	5000	1156	5679	5585		1715156749938895665	1.81921242467583	1.65649788913381
724843099305	0.709683954489976	-0.17633487388622	-10.1537683241903	0.032287045696225	-0.050025371354212	-0.389707985609915	0.792000494899999	-0.0425323031	0.039611774	-0.6076714686		1715156707143803834	3783	5056	1132	5679	5585		1715156749958901784	1.80948469519301	1.67081027709944
724896147007	0.539131901788897	-0.250992201594077	-10.1332866771757	0.034388941425381	-0.008240342121802	-0.398384464572852	0.787770763099999	-0.0414245162	0.0383361406	-0.6133446803		1715156707218883991	3797	4949	1132	5679	5689		1715156749978897674	1.79968672966214	1.68494244974016
724950122525	0.504482832407765	-0.214881681358255	-10.4099934945344	-0.006093373951642	0.011735075782407	-0.361866999968604	0.7843131252	-0.0407531302	0.0368590914	-0.6179101051		1715156707287298440	3867	4888	1142	0	5656		1715156749998897063	1.78972350100984	1.69896229314568
725000125412	0.33300880602356	-0.189363994671497	-10.2157101088404	0.055056165877156	-0.005935750185218	-0.36000638247302	0.7809226259	-0.0406859916	0.0361877054	-0.622206975499999		1715156707362177848	3891	4799	1404	5661	5679		1715156750018894928	1.77959881181894	1.71286436206217
725053143453	0.870381004663556	-0.221290488954633	-9.82444635345339	-9.63E-03	-0.107140843189029	-0.37978771054937	0.7787741907	-0.0425323031	0.0407866995	-0.624489687899999		1715156707437270641	3947	4799	1357	5646	5707		1715156750038895718	1.76931177768178	1.72664987294589
725106200943	0.102975175640312	-0.16438465264514	-10.2769574814856	-0.030718972285197	0.102756048322754	-0.406848722886424	0.774712305399999	-0.0421966101	0.0408538381	-0.6295586522		1715156707512261629	4003	4677	1385	5553	5750		1715156750058894124	1.75886649018278	1.74031328481434
725161194322	0.764739852083846	-0.059663998744101	-10.2655674879431	0.049061914573227	-0.082797786481483	-0.401874537181401	0.770516142899999	-0.0417266399	0.0399138977	-0.634761893699999		1715156707586963653	4040	4611	1366	5585	5773		1715156750078895241	1.74813840380843	1.75401372222706
725211204295	0.669001084837317	-0.439266738794744	-9.94238767322301	0.019958657154246	-0.045135291605366	-0.456817081787362	0.7679313068	-0.0444793225	0.042968704	-0.637481007		1715156707662766695	4096	4592	1399	5529	5773		1715156750098895904	1.73725208179393	1.76758825977485
725264180591	0.551460783616639	-0.397608703966997	-10.2387753426074	0.050482935719002	0.047616013677207	-0.542245996524438	0.762358802999999	-0.0445464611	0.0413238083	-0.644262005599999		1715156707738097906	4096	4518	1427	5534	5806		1715156750118896155	1.72620898177464	1.78103510121091
725318165265	0.587626979562453	-0.304208901062048	-10.2234982784986	0.023108793894403	0.088773237532591	-0.578043641975551	0.7554770965	-0.0444457532	0.0391753731	-0.652452914799999		1715156707806066036	4157	4457	1512	0	5834		1715156750138896925	1.71501008330873	1.79435305861578
725365164127	0.73098210551925	-0.754223134244605	-9.94707086260318	0.014659010277475	0.006835781080069	-0.673779223157829	0.748259697	-0.0451842778	0.0366241063	-0.6608452398		1715156707881325244	4176	4415	1615	5506	5890		1715156750158894676	1.70365889483665	1.80753799079967
725418139257	0.529601528105884	-0.584582570365257	-9.27360519957244	0.06779059493921	0.131018712233166	-0.755218023502179	0.740908020299999	-0.0492461631	0.0378326011	-0.668700455999999		1715156707942648887	4186	4354	1634	0	0		1715156750178894115	1.69233944189035	1.82038119705341
725471117652	0.701350425908714	-0.804447154702618	-9.83740637279152	0.061891485065224	-0.060112426878024	-0.896838538685977	0.729125195999999	-0.0506560737	0.0337707158	-0.681658205799999		1715156708011529922	4209	4335	1737	0	5904		1715156750198893408	1.68087976616951	1.83309927533632
725526169671	0.531215283445455	-0.862588889482617	-10.2949502342939	0.01104926602863	0.027772941875459	-0.891129786573283	0.7161338769	-0.0519988457	0.0294738454	-0.695354480199999		1715156708079149246	4275	4265	1798	5361	0		1715156750218896628	1.66927888962233	1.84569326007418
725576189697	0.445580013594776	-0.565655240120552	-10.5665191042423	0.016249252423983	0.023774068179462	-0.941724387804554	0.705995948299999	-0.0563292854	0.0312865876	-0.705223854399999		1715156708147333621	4363	4228	1845	0	5923		1715156750238894974	1.65754329380084	1.8581560735266
725629192384	0.578244197656586	-0.528559873565845	-10.1339191298604	0.109754852312239	-0.013362710375095	-0.942151026211185	0.6921653967	-0.056732117	0.0278289497	-0.7189536981		1715156708222867250	4405	4115	1900	5305	5984		1715156750258898201	1.64566870232175	1.87049232379336
725681223448	-0.095733826209931	-0.900764963946118	-11.1122521213293	0.011353159756738	0.055037494621201	-0.938809091938272	0.679174077599999	-0.0593505224	0.0253112522	-0.7311057847		1715156708296896934	4476	4078	1900	5286	6012		1715156750278912960	1.63345592681864	1.88290421833821
725730218191	0.186900600232649	-0.396891459075734	-10.1898637199223	0.083197310579265	-0.017847536068627	-0.911428000927704	0.6652428181	-0.0598876312	0.0223235845	-0.7438621187		1715156708371339321	4536	3970	1849	5295	5993		1715156750298895886	1.62111378980498	1.89514819422343
725784153725	-0.214672385989129	-0.832178261388838	-10.6648403622627	0.066865849701382	-0.014268728180913	-0.893069633111297	0.6551384588	-0.0653258578	0.0247070048	-0.752254443699999		1715156708438996315	4574	0	1900	5272	6054		1715156750318893970	1.60861542664552	1.90725162000355
725837206108	0.130298797504184	-0.730985612650588	-10.0869668245494	0.020373879338298	0.036796755301192	-0.926210742085543	0.641173629999999	-0.066131521	0.0224242924	-0.7641715452		1715156708507882356	0	3947	1872	5206	6073		1715156750338896640	1.59596900824506	1.91920607303479
725891150855	0.486945495216734	-0.47858887802083	-9.93982045308351	0.085939467685179	-0.035127153034794	-0.929919260482505	0.6265038459	-0.0662993675	0.0196380405	-0.7762900625		1715156708581832408	4653	3881	1910	5220	6101		1715156750358896921	1.58318073752533	1.93100559179335
725941171514	0.24065993694365	-0.815675527942553	-9.80043127161562	0.038184004235393	0.002486230446049	-0.953945500888873	0.616298778699999	-0.0700926984	0.0206786888	-0.7840781401		1715156708657106399	4757	3848	1994	5225	6124		1715156750378895765	1.57032621677658	1.94258215026271
725992196872	0.729246221637353	-0.966002429140731	-10.0942406149446	0.024416580759579	-0.099108208386754	-0.950243440657554	0.601528286699999	-0.0707640844	0.0170867737	-0.7954917021		1715156708732505559	4766	3853	2041	5201	6199		1715156750398898023	1.55733314572711	1.95400745965901
726043227824	0.342058666180632	-0.669943407188728	-10.2473947023928	0.01253217446083	-0.012876703241804	-0.93803431179814	0.5873284728	-0.0702605449	0.0148040613	-0.8061331702		1715156708806759595	4785	3811	2120	5427	6181		1715156750418897972	1.54420703738692	1.9652766104728
726095191677	0.575157118361443	-0.589781782976165	-9.97774540233015	0.074750271266617	-0.054260762883334	-0.923649779802295	0.573027950999999	-0.0697905747	0.0124542103	-0.816405376		1715156708881317138	4799	3783	2148	5211	6241		1715156750438896998	1.53094886431868	1.97638884262278
726146168254	0.235431352107785	-0.718312812756001	-11.0682060588538	-0.030679696900902	0.065590212183991	-0.952711791513894	0.5624536215	-0.0721404257	0.0135619972	-0.823522067599999		1715156708956258773	4794	3712	2125	5436	6237		1715156750458895290	1.51756038161835	1.98734271960914
726196231174	0.521779054319299	-0.470736593617871	-9.95237832136154	0.028394881536155	-0.028052696544999	-0.949740502685693	0.5480523918	-0.0706298072	0.0112121462	-0.833357872499999		1715156709017723560	4780	3642	2153	0	0		1715156750478894904	1.50412023573159	1.99807542984794
726248198243	1.19126204092204	-0.494807278100401	-10.24002271232	0.05934799977663	-0.006997351734453	-0.897861059386513	0.5338525779	-0.0690184808	0.008392325	-0.842690137899999		1715156709085873842	4794	3562	0	5398	6354		1715156750498896543	1.49051832715496	2.00860522486396
726299240395	0.956853273327648	-0.195984527056105	-9.99033717287778	0.001236008432014	-0.047112734487831	-0.888059161836422	0.520223442099999	-0.0664000754	0.0061431819	-0.851384586599999		1715156709159994363	4827	3548	2223	5483	6345		1715156750518896087	1.47676053797618	2.01892751901804
726350198759	1.37943775739073	-0.546347386125661	-9.965500837785	0.007759710724813	-0.042927019235418	-0.895350830322032	0.509951236299999	-0.0667693377	0.0055725038	-0.857561337799999		1715156709234568357	4963	3436	2228	5478	6438		1715156750538895930	1.46284838347507	2.02904123852717
726400199959	1.17809641600921	-0.65064205599986	-10.3501980742633	0.066835835043659	-0.020689663664554	-0.897499002636317	0.4961206847	-0.0649901648	0.0022491431	-0.8657858163		1715156709303706169	5140	3422	0	5023	6438		1715156750558895555	1.44878538683743	2.03894381604595
726453202567	0.843054825516417	-0.692708635095879	-10.6569563310146	-0.05181520286026	-0.072896494766083	-0.847564865355386	0.482894380499999	-6.32E-02	-3.36E-05	-8.73E-01		1715156709378933429	5220	3361	2327	5234	6467		1715156750578894091	1.43449275639765	2.04868891262105
726503238642	0.689848642554879	-0.334897030922956	-10.3793633784711	0.0132399937846	0.024071593207494	-0.771328150726341	0.471413679899999	-0.0609618488	-0.0014099106	-0.879750645099999		1715156709441269397	5262	0	2607	0	6523		1715156750598894997	1.42003064255579	2.05818440555788
726554194712	1.22446346877813	0.054367623068765	-9.87198902587294	0.04709028071089	-0.03880353456754	-0.661383406706	0.464766958499999	-0.0608611409	0.0004699702	-0.883308990899999		1715156709509167194	5352	3282	0	5005	6546		1715156750618909807	1.40539495126106	2.06743264644667
726605195921	0.629886852740868	-0.441034698315337	-10.5624625223279	0.011654537005675	0.041622844282471	-0.652077988962127	0.456508910699999	-0.0584777206	-0.0003021237	-0.8877737078		1715156709584984302	5352	3221	2739	5103	6593		1715156750638896338	1.39062098312699	2.07641133756517
726657224434	0.944818259879946	-0.577896772458404	-9.73522200960218	0.058461104715796	0.015948156055317	-0.701285149844494	0.446673105799999	-0.0578734732	-0.0021148659	-0.892809102799999		1715156709660467386	5492	3221	2748	5136	6668		1715156750658897451	1.37568188348679	2.08513754065955
726708201333	1.08461149210408	-0.591031125450134	-10.1213425568819	-0.038951144432147	-0.021820959931457	-0.703442110590377	0.436132345599999	-0.0574370723	-0.0038940388	-0.898012344299999		1715156709735524177	5478	3207	2790	5122	6687		1715156750678894301	1.36068327888363	2.09355114200117
726758192162	0.701121001067012	-0.265523251374904	-9.7781644947499	0.054394661629516	0.073690915719254	-0.667746098024363	0.429989163699999	-0.0583770127	-0.002349851	-0.9008993041		1715156709810088872	5534	3212	2902	5225	6682		1715156750698895913	1.3455488653528	2.10172654585975
726809218735	0.935870837184041	-0.510297948427312	-10.1924625042438	0.017499473397721	0.059031886716427	-0.666493879679808	0.4203547746	-0.0571013793	-0.0037597616	-0.905531867499999		1715156709879411697	5567	3174	2916	0	6692		1715156750718899889	1.33028422614941	2.10966055099665
726861228510	0.569998749217577	-0.751389445188641	-10.6106586902201	0.003510525373631	0.14023230917608	-0.683319598288874	0.410888231999999	-0.0564299933	-0.0049682564	-0.909895876499999		1715156709954666137	5524	2930	3010	5216	6757		1715156750738891739	1.31490434464761	2.11734548394044
726909256085	0.923789865702763	-0.75303794304803	-10.2785543952882	-0.02215049698803	-0.025928172268956	-0.674830106523974	0.4012538429	-0.0560943003	-0.0058410582	-0.9141927469		1715156710022586345	5609	0	2991	5220	6804		1715156750758891218	1.29939803532392	2.12478718857958
726963261685	0.729812696413695	0.017120511434891	-10.1686432372391	-0.00555769158194	0.081235101810473	-0.641506504436031	0.395244938199999	-0.0559935924	-0.0032226528	-0.9168447216		1715156710096837520	5656	2874	3132	5206	6874		1715156750778892246	1.28368301334481	2.13202313071581
727013286110	0.953968584736809	0.01523145998501	-10.2680259870111	0.023553433605527	-0.052951619470478	-0.477103078890282	0.387658276399999	-0.053375187	-0.0037933309	-0.920201651599999		1715156710171386957	5693	2855	2996	5262	6926		1715156750798897206	1.26784106580633	2.13898525474791
727066275143	0.736524761272966	0.082166360764252	-10.5732750082433	-0.030026797992534	0.059391525815696	-0.288513323667138	0.384771316599999	-0.0509917667	-0.0036590537	-0.9215779929		1715156710239225387	0	2851	3174	5187	6902		1715156750818894367	1.25188630095669	2.14566735941559
